Acceleration_X,Acceleration_Y,Acceleration_Z
-0.26934814453125,-0.6369781494140625,-0.73504638671875
-0.311798095703125,-0.6934967041015625,-0.7859344482421875
-0.313385009765625,-0.680694580078125,-0.7294769287109375
-0.32281494140625,-0.6330413818359375,-0.670318603515625
-0.36077880859375,-0.596954345703125,-0.669708251953125
-0.3962554931640625,-0.5985107421875,-0.69415283203125
-0.4128265380859375,-0.6125946044921875,-0.68341064453125
-0.416351318359375,-0.61846923828125,-0.670318603515625
-0.4141845703125,-0.620361328125,-0.673370361328125
-0.4028472900390625,-0.6160888671875,-0.6711578369140625
-0.3941802978515625,-0.616790771484375,-0.6661529541015625
-0.385009765625,-0.621917724609375,-0.668670654296875
-0.3832855224609375,-0.6280364990234375,-0.6775360107421875
-0.3937225341796875,-0.6308135986328125,-0.6858673095703125
-0.405792236328125,-0.6300811767578125,-0.6844329833984375
-0.411956787109375,-0.6222381591796875,-0.6695404052734375
-0.4154052734375,-0.6233367919921875,-0.675811767578125
-0.411773681640625,-0.631317138671875,-0.690338134765625
-0.417144775390625,-0.6393890380859375,-0.6859130859375
-0.428253173828125,-0.6422882080078125,-0.676544189453125
-0.4320526123046875,-0.6542510986328125,-0.688323974609375
-0.44024658203125,-0.6813201904296875,-0.70147705078125
-0.4355926513671875,-0.7137908935546875,-0.7137451171875
-0.4333038330078125,-0.7562408447265625,-0.7394561767578125
-0.443115234375,-0.8028411865234375,-0.76739501953125
-0.4894256591796875,-0.846832275390625,-0.806243896484375
-0.540618896484375,-0.8745880126953125,-0.8357086181640625
-0.573486328125,-0.891387939453125,-0.8478240966796875
-0.5958099365234375,-0.9101104736328125,-0.8846435546875
-0.6174163818359375,-0.9162139892578125,-0.9275970458984375
-0.6421966552734375,-0.916473388671875,-0.9393768310546875
-0.678497314453125,-0.903778076171875,-0.9392547607421875
-0.7039947509765625,-0.9031829833984375,-0.929290771484375
-0.7325897216796875,-0.9386138916015625,-0.9697113037109375
-0.7532958984375,-0.96917724609375,-1.00982666015625
-0.7685089111328125,-0.9752960205078125,-0.9998626708984375
-0.7943878173828125,-0.9782257080078125,-1.011505126953125
-0.8132171630859375,-0.969390869140625,-1.001983642578125
-0.81500244140625,-0.9344940185546875,-0.9642486572265625
-0.8153228759765625,-0.8867950439453125,-0.9339141845703125
-0.8091278076171875,-0.8743438720703125,-0.9246673583984375
-0.8177032470703125,-0.885284423828125,-0.924957275390625
-0.8452301025390625,-0.888092041015625,-0.9167022705078125
-0.860565185546875,-0.87152099609375,-0.8790283203125
-0.8695831298828125,-0.8426513671875,-0.8633270263671875
-0.8593292236328125,-0.7975006103515625,-0.826416015625
-0.8338623046875,-0.75128173828125,-0.7642059326171875
-0.801422119140625,-0.728759765625,-0.71435546875
-0.7652587890625,-0.72601318359375,-0.6669769287109375
-0.7254180908203125,-0.708282470703125,-0.622100830078125
-0.6911468505859375,-0.67608642578125,-0.5792083740234375
-0.6704254150390625,-0.6561126708984375,-0.5255584716796875
-0.6452178955078125,-0.6475982666015625,-0.475494384765625
-0.607025146484375,-0.63165283203125,-0.424591064453125
-0.5601959228515625,-0.617095947265625,-0.3685302734375
-0.520477294921875,-0.6099090576171875,-0.2996826171875
-0.5063018798828125,-0.5932159423828125,-0.2210235595703125
-0.4684295654296875,-0.5649871826171875,-0.141937255859375
-0.4452972412109375,-0.536468505859375,-0.080596923828125
-0.445037841796875,-0.510040283203125,-0.0310821533203125
-0.4507293701171875,-0.4930267333984375,0.0204315185546875
-0.454803466796875,-0.4688873291015625,0.0545196533203125
-0.4505615234375,-0.4382476806640625,0.083465576171875
-0.4517669677734375,-0.4123687744140625,0.1178131103515625
-0.450164794921875,-0.3828582763671875,0.1588592529296875
-0.43646240234375,-0.3620147705078125,0.1796722412109375
-0.414520263671875,-0.359375,0.2148895263671875
-0.3946380615234375,-0.355224609375,0.24298095703125
-0.371551513671875,-0.3454437255859375,0.2685546875
-0.3655548095703125,-0.3348541259765625,0.3079681396484375
-0.3576202392578125,-0.3206939697265625,0.336181640625
-0.3305206298828125,-0.3015899658203125,0.33447265625
-0.298583984375,-0.2899627685546875,0.3241119384765625
-0.257232666015625,-0.276123046875,0.308441162109375
-0.200531005859375,-0.2661895751953125,0.2864532470703125
-0.134002685546875,-0.275421142578125,0.25921630859375
-0.0684967041015625,-0.2934112548828125,0.2304229736328125
-0.0063934326171875,-0.3267822265625,0.2329559326171875
0.0589447021484375,-0.3736114501953125,0.22235107421875
0.116363525390625,-0.4065093994140625,0.1984710693359375
0.1667938232421875,-0.4141998291015625,0.1708984375
0.211181640625,-0.4341888427734375,0.1351165771484375
0.2534637451171875,-0.471343994140625,0.1021881103515625
0.2762451171875,-0.50384521484375,0.0839691162109375
0.286163330078125,-0.5338134765625,0.0722503662109375
0.286651611328125,-0.5660247802734375,0.05291748046875
0.2990875244140625,-0.6056365966796875,0.0404052734375
0.2982330322265625,-0.635406494140625,-0.0041351318359375
0.2957763671875,-0.68377685546875,-0.059417724609375
0.2901153564453125,-0.715606689453125,-0.0991973876953125
0.2849578857421875,-0.720703125,-0.1676025390625
0.2661590576171875,-0.7357940673828125,-0.243194580078125
0.2651519775390625,-0.7600860595703125,-0.3081817626953125
0.2847137451171875,-0.776214599609375,-0.399169921875
0.2999725341796875,-0.7910614013671875,-0.5001373291015625
0.3228912353515625,-0.8146514892578125,-0.61517333984375
0.3162384033203125,-0.8661041259765625,-0.7325897216796875
0.3051605224609375,-0.901763916015625,-0.8206329345703125
0.2896270751953125,-0.9264678955078125,-0.906005859375
0.2429351806640625,-0.9799346923828125,-0.9460296630859375
0.1898956298828125,-1.0154266357421875,-0.9951171875
0.1377105712890625,-1.0442352294921875,-1.0412139892578125
0.0756072998046875,-1.0750274658203125,-1.0897674560546875
0.00042724609375,-1.090850830078125,-1.1300048828125
-0.080810546875,-1.0694427490234375,-1.1769866943359375
-0.1696624755859375,-1.042755126953125,-1.213531494140625
-0.2653961181640625,-1.0447540283203125,-1.2290496826171875
-0.357635498046875,-1.07568359375,-1.20361328125
-0.4395751953125,-1.07696533203125,-1.171630859375
-0.5305938720703125,-1.0641632080078125,-1.1280517578125
-0.62060546875,-1.0507354736328125,-1.0482025146484375
-0.6933441162109375,-1.0050201416015625,-0.96728515625
-0.7233123779296875,-0.9558563232421875,-0.8866729736328125
-0.7505340576171875,-0.9119720458984375,-0.8028106689453125
-0.777252197265625,-0.8567352294921875,-0.7331695556640625
-0.8119354248046875,-0.8253631591796875,-0.6169586181640625
-0.8457183837890625,-0.8021240234375,-0.4952850341796875
-0.8563079833984375,-0.7593536376953125,-0.3997802734375
-0.8799896240234375,-0.7449188232421875,-0.26458740234375
-0.9138031005859375,-0.739410400390625,-0.157501220703125
-0.91070556640625,-0.70513916015625,-0.063995361328125
-0.9012451171875,-0.645904541015625,0.02508544921875
-0.9165191650390625,-0.59197998046875,0.0971221923828125
-0.9292755126953125,-0.537384033203125,0.1408538818359375
-0.9305267333984375,-0.50579833984375,0.1735076904296875
-0.944000244140625,-0.474945068359375,0.20635986328125
-0.958404541015625,-0.4461822509765625,0.22406005859375
-0.953857421875,-0.4170684814453125,0.246063232421875
-0.94232177734375,-0.402984619140625,0.26220703125
-0.937713623046875,-0.375732421875,0.27484130859375
-0.9211578369140625,-0.347381591796875,0.2853546142578125
-0.8781585693359375,-0.3270263671875,0.289581298828125
-0.82708740234375,-0.309417724609375,0.290618896484375
-0.7613983154296875,-0.2830963134765625,0.26629638671875
-0.6917266845703125,-0.2768707275390625,0.2320709228515625
-0.6224212646484375,-0.31365966796875,0.182891845703125
-0.55145263671875,-0.3573760986328125,0.1516571044921875
-0.5097503662109375,-0.3900604248046875,0.1283721923828125
-0.4735565185546875,-0.4127349853515625,0.1064605712890625
-0.4254913330078125,-0.4409942626953125,0.090301513671875
-0.3933258056640625,-0.5305633544921875,0.046356201171875
-0.3918914794921875,-0.6369476318359375,-0.03570556640625
-0.4000701904296875,-0.781890869140625,-0.1317901611328125
-0.4364166259765625,-0.87799072265625,-0.218780517578125
-0.498321533203125,-0.8763580322265625,-0.31500244140625
-0.57366943359375,-0.8303375244140625,-0.4149627685546875
-0.63873291015625,-0.8179473876953125,-0.4985809326171875
-0.71258544921875,-0.8528289794921875,-0.574310302734375
-0.7737884521484375,-0.92730712890625,-0.622314453125
-0.8462677001953125,-1.0327301025390625,-0.65570068359375
-0.91949462890625,-1.1177520751953125,-0.666473388671875
-0.9854583740234375,-1.1580352783203125,-0.68017578125
-1.079498291015625,-1.1633148193359375,-0.714202880859375
-1.1814117431640625,-1.1283721923828125,-0.7680816650390625
-1.3119659423828125,-1.1034088134765625,-0.8439788818359375
-1.4615631103515625,-1.16461181640625,-0.923492431640625
-1.59619140625,-1.2523193359375,-0.9724884033203125
-1.69891357421875,-1.2661285400390625,-0.965850830078125
-1.745513916015625,-1.2093658447265625,-0.945281982421875
-1.7524261474609375,-1.1826324462890625,-0.9134979248046875
-1.7383575439453125,-1.165802001953125,-0.867706298828125
-1.6940765380859375,-1.1159820556640625,-0.8185577392578125
-1.66839599609375,-1.0905914306640625,-0.76422119140625
-1.66839599609375,-1.0905914306640625,-0.76422119140625
-1.628021240234375,-1.076568603515625,-0.629150390625
-1.628021240234375,-1.076568603515625,-0.629150390625
-1.5535430908203125,-1.005218505859375,-0.5475921630859375
-1.5535430908203125,-1.005218505859375,-0.5475921630859375
-1.3203125,-0.859344482421875,-0.478668212890625
-1.2064971923828125,-0.8410491943359375,-0.436920166015625
-1.2064971923828125,-0.8410491943359375,-0.436920166015625
-0.98846435546875,-0.6885833740234375,-0.3262939453125
-0.98846435546875,-0.6885833740234375,-0.3262939453125
-0.89892578125,-0.61785888671875,-0.25390625
-0.766571044921875,-0.55523681640625,-0.2016448974609375
-0.625152587890625,-0.513153076171875,-0.1729888916015625
-0.5111541748046875,-0.46844482421875,-0.1243743896484375
-0.4081268310546875,-0.3841400146484375,-0.0992889404296875
-0.2995452880859375,-0.301177978515625,-0.094482421875
-0.2268218994140625,-0.2022705078125,-0.094940185546875
-0.1420135498046875,-0.114227294921875,-0.0748443603515625
-0.0477142333984375,-0.0640106201171875,-0.07757568359375
0.0313720703125,-0.036224365234375,-0.05517578125
0.1010589599609375,0.027130126953125,-0.0598907470703125
0.1639251708984375,0.05841064453125,-0.076629638671875
0.212646484375,0.0518341064453125,-0.0784759521484375
0.264007568359375,0.0768890380859375,-0.0653228759765625
0.3018646240234375,0.1089324951171875,-0.052642822265625
0.3233795166015625,0.116607666015625,-0.03375244140625
0.31829833984375,0.103912353515625,-0.0013275146484375
0.312164306640625,0.1231536865234375,0.0511016845703125
0.2998504638671875,0.1172332763671875,0.0828704833984375
0.2866363525390625,0.084808349609375,0.10711669921875
0.265655517578125,0.0588836669921875,0.139495849609375
0.2430419921875,0.0142669677734375,0.15899658203125
0.2054290771484375,-0.021484375,0.180023193359375
0.1615447998046875,-0.0482177734375,0.20172119140625
0.1250457763671875,-0.03912353515625,0.2242889404296875
0.0671539306640625,-0.048431396484375,0.20111083984375
-0.0224609375,-0.1031341552734375,0.1702117919921875
-0.1078338623046875,-0.1407928466796875,0.1503753662109375
-0.187744140625,-0.1553497314453125,0.16217041015625
-0.27679443359375,-0.1968536376953125,0.1565704345703125
-0.36590576171875,-0.2604827880859375,0.1655731201171875
-0.4247283935546875,-0.2810516357421875,0.20782470703125
-0.5274505615234375,-0.3236083984375,0.2683258056640625
-0.6167144775390625,-0.3318634033203125,0.353912353515625
-0.7258148193359375,-0.322784423828125,0.4292449951171875
-0.868011474609375,-0.3201904296875,0.48834228515625
-1.0257110595703125,-0.3332977294921875,0.531585693359375
-1.1626434326171875,-0.3368377685546875,0.5518798828125
-1.263916015625,-0.3453369140625,0.5712127685546875
-1.37847900390625,-0.4032135009765625,0.563690185546875
-1.4540863037109375,-0.4335784912109375,0.5670013427734375
-1.5161895751953125,-0.4001007080078125,0.6052703857421875
-1.567413330078125,-0.3866424560546875,0.6336212158203125
-1.676483154296875,-0.3676300048828125,0.67828369140625
-1.761444091796875,-0.30194091796875,0.7419891357421875
-1.860748291015625,-0.3197784423828125,0.7836151123046875
-1.9614410400390625,-0.330596923828125,0.833709716796875
-2.0714111328125,-0.357818603515625,0.845947265625
-2.192596435546875,-0.383819580078125,0.8395233154296875
-2.2872467041015625,-0.345428466796875,0.837921142578125
-2.321075439453125,-0.333404541015625,0.8302764892578125
-2.33612060546875,-0.333404541015625,0.83355712890625
-2.3021087646484375,-0.258026123046875,0.8113555908203125
-2.2281951904296875,-0.25616455078125,0.800994873046875
-2.1303253173828125,-0.2450714111328125,0.7772674560546875
-2.0616455078125,-0.223541259765625,0.7263336181640625
-1.9779205322265625,-0.2208251953125,0.6680908203125
-1.897064208984375,-0.21722412109375,0.59375
-1.8057708740234375,-0.2120513916015625,0.518768310546875
-1.713134765625,-0.2079315185546875,0.4579315185546875
-1.5985260009765625,-0.1653289794921875,0.4149017333984375
-1.4841156005859375,-0.103057861328125,0.3861846923828125
-1.3162384033203125,-0.0306854248046875,0.3565216064453125
-1.1160888671875,-0.0100860595703125,0.3073272705078125
-0.9281005859375,0.011749267578125,0.32244873046875
-0.7626800537109375,0.0341033935546875,0.311431884765625
-0.685211181640625,-0.01824951171875,0.2478179931640625
-0.636077880859375,-0.01318359375,0.204132080078125
-0.5355682373046875,0.0926361083984375,0.18499755859375
-0.431671142578125,0.1066436767578125,0.1439056396484375
-0.3195648193359375,0.112701416015625,0.088592529296875
-0.167999267578125,0.1483306884765625,0.0584259033203125
0.0136871337890625,0.1394500732421875,0.061859130859375
0.170257568359375,0.10693359375,0.0624237060546875
0.2405242919921875,0.0491180419921875,0.036468505859375
0.2195892333984375,-0.052276611328125,-0.034027099609375
0.2371368408203125,-0.0838623046875,-0.0708160400390625
0.2833709716796875,-0.0053863525390625,-0.06964111328125
0.2874755859375,0.0087127685546875,-0.0764007568359375
0.3101959228515625,-0.0084991455078125,-0.096038818359375
0.3485107421875,-0.024169921875,-0.1022796630859375
0.3728485107421875,-0.0007171630859375,-0.03955078125
0.356842041015625,0.0351715087890625,-0.0075531005859375
0.336578369140625,0.005615234375,-0.0068206787109375
0.2538299560546875,-0.0204315185546875,0.0327301025390625
0.1513214111328125,-0.001617431640625,0.0755157470703125
0.0466156005859375,-0.0030059814453125,0.1190948486328125
-0.0411376953125,0.0057525634765625,0.1868743896484375
-0.1785125732421875,0.0287322998046875,0.2695159912109375
-0.3443603515625,0.00634765625,0.350860595703125
-0.4891357421875,-0.006927490234375,0.4478759765625
-0.6207275390625,0.0412750244140625,0.565826416015625
-0.7609405517578125,0.0783538818359375,0.65618896484375
-0.8718719482421875,0.0457916259765625,0.716461181640625
-0.99969482421875,0.049835205078125,0.7874603271484375
-1.15008544921875,0.0823516845703125,0.8545074462890625
-1.3276519775390625,0.069793701171875,0.960601806640625
-1.499847412109375,0.0415802001953125,1.1282196044921875
-1.7122650146484375,-0.0443267822265625,1.2280120849609375
-1.8932342529296875,-0.1688232421875,1.372894287109375
-2.0454559326171875,-0.2179107666015625,1.4497222900390625
-2.105377197265625,0.0127410888671875,1.4144744873046875
-2.10382080078125,0.1614990234375,1.46014404296875
-2.167205810546875,0.0440826416015625,1.4994049072265625
-2.1729583740234375,-0.005096435546875,1.4890289306640625
-2.119415283203125,-0.0018463134765625,1.5179290771484375
-2.08258056640625,-0.0338287353515625,1.484405517578125
-2.091949462890625,-0.144012451171875,1.36456298828125
-2.1037445068359375,-0.1529083251953125,1.2991790771484375
-2.02587890625,-0.1926727294921875,1.1992340087890625
-1.92816162109375,-0.2111358642578125,1.0913543701171875
-1.784759521484375,-0.02435302734375,0.9380950927734375
-1.5251922607421875,0.0447845458984375,0.8215179443359375
-1.265869140625,0.1252593994140625,0.721343994140625
-1.027374267578125,0.2045745849609375,0.6585845947265625
-0.7750396728515625,0.205535888671875,0.63812255859375
-0.576995849609375,0.1823577880859375,0.62322998046875
-0.4077301025390625,0.2235260009765625,0.617584228515625
-0.35723876953125,0.196807861328125,0.55279541015625
-0.4378814697265625,0.128662109375,0.51019287109375
-0.34967041015625,0.2526702880859375,0.533172607421875
-0.278106689453125,0.3559417724609375,0.5444793701171875
-0.22479248046875,0.33905029296875,0.5528411865234375
-0.1167449951171875,0.3141937255859375,0.580322265625
0.0284271240234375,0.3392181396484375,0.6418914794921875
0.1573944091796875,0.3116607666015625,0.71435546875
0.23223876953125,0.2320556640625,0.771575927734375
0.1614990234375,0.1268463134765625,0.771453857421875
0.1336212158203125,0.044891357421875,0.7497406005859375
0.118011474609375,0.0423583984375,0.76385498046875
0.07183837890625,0.015411376953125,0.739227294921875
0.0055694580078125,-0.115753173828125,0.65997314453125
-0.0301513671875,-0.28289794921875,0.5686187744140625
-0.0450592041015625,-0.393768310546875,0.48138427734375
-0.100555419921875,-0.527191162109375,0.3758544921875
-0.1639862060546875,-0.74798583984375,0.266357421875
-0.2708587646484375,-0.94427490234375,0.1604156494140625
-0.4042510986328125,-1.0356292724609375,0.01910400390625
-0.5580291748046875,-1.1453399658203125,-0.136138916015625
-0.7027740478515625,-1.2584991455078125,-0.289093017578125
-0.8441162109375,-1.264251708984375,-0.4189453125
-0.9120635986328125,-1.2586669921875,-0.4931793212890625
-0.9468994140625,-1.2964935302734375,-0.59124755859375
-0.991455078125,-1.30517578125,-0.6584625244140625
-1.0126495361328125,-1.221954345703125,-0.6509246826171875
-1.0275421142578125,-1.1339569091796875,-0.606658935546875
-1.0196990966796875,-1.0709228515625,-0.53021240234375
-0.9722747802734375,-0.9851837158203125,-0.435791015625
-0.898529052734375,-0.86004638671875,-0.326629638671875
-0.8072509765625,-0.7880859375,-0.236083984375
-0.70098876953125,-0.69842529296875,-0.13580322265625
-0.5896148681640625,-0.5195770263671875,-0.04498291015625
-0.4819793701171875,-0.3821563720703125,0.0105133056640625
-0.37042236328125,-0.32379150390625,0.07696533203125
-0.2916259765625,-0.2292022705078125,0.1936798095703125
-0.2345733642578125,-0.1077117919921875,0.274383544921875
-0.1976165771484375,-0.0280609130859375,0.3560943603515625
-0.172821044921875,0.0803070068359375,0.4547882080078125
-0.1540985107421875,0.1969146728515625,0.5875396728515625
-0.1418304443359375,0.2777862548828125,0.6289825439453125
-0.149566650390625,0.3095245361328125,0.6315765380859375
-0.161041259765625,0.37554931640625,0.667724609375
-0.1527252197265625,0.45941162109375,0.6784820556640625
-0.1483612060546875,0.47906494140625,0.680938720703125
-0.14837646484375,0.496795654296875,0.71142578125
-0.17938232421875,0.558990478515625,0.819793701171875
-0.2062530517578125,0.6157379150390625,0.9288330078125
-0.24212646484375,0.6546783447265625,1.01556396484375
-0.2778472900390625,0.6544952392578125,1.056396484375
-0.3381195068359375,0.6233367919921875,1.15386962890625
-0.3878021240234375,0.646881103515625,1.2164459228515625
-0.41217041015625,0.624542236328125,1.241790771484375
-0.4295654296875,0.6104583740234375,1.280029296875
-0.445068359375,0.5924530029296875,1.3391571044921875
-0.50909423828125,0.566925048828125,1.476287841796875
-0.6195068359375,0.526611328125,1.587554931640625
-0.7697296142578125,0.43951416015625,1.7328338623046875
-0.9112396240234375,0.4346923828125,1.868743896484375
-1.040679931640625,0.399200439453125,1.96221923828125
-1.15582275390625,0.35260009765625,2.0166015625
-1.2034759521484375,0.3059539794921875,2.0745697021484375
-1.240264892578125,0.2419891357421875,2.1519317626953125
-1.237060546875,0.242919921875,2.205535888671875
-1.204864501953125,0.2154083251953125,2.19659423828125
-1.2212066650390625,0.137908935546875,2.1066131591796875
-1.3051910400390625,0.0712127685546875,1.9839019775390625
-1.354339599609375,0.0118408203125,1.8722991943359375
-1.4163970947265625,-0.037445068359375,1.729522705078125
-1.4314727783203125,-0.055938720703125,1.5722503662109375
-1.4021148681640625,-0.07403564453125,1.41571044921875
-1.30926513671875,-0.118011474609375,1.3046417236328125
-1.1895751953125,-0.1287689208984375,1.160308837890625
-1.0803985595703125,-0.1278839111328125,0.998992919921875
-0.9744415283203125,-0.1541748046875,0.848968505859375
-0.8903656005859375,-0.1717376708984375,0.696044921875
-0.856475830078125,-0.1770477294921875,0.556549072265625
-0.803253173828125,-0.159820556640625,0.431304931640625
-0.725555419921875,-0.1366119384765625,0.3277740478515625
-0.629608154296875,-0.1356353759765625,0.246368408203125
-0.51568603515625,-0.0717926025390625,0.1829376220703125
-0.3370361328125,-0.01953125,0.12713623046875
-0.191009521484375,-0.028900146484375,0.02984619140625
-0.1205291748046875,-0.12451171875,-0.06805419921875
-0.052093505859375,-0.148345947265625,-0.1198883056640625
0.02166748046875,-0.05572509765625,-0.1568450927734375
0.083953857421875,-0.0275115966796875,-0.1619110107421875
0.1038360595703125,-0.041473388671875,-0.1656036376953125
0.1302337646484375,-0.0361480712890625,-0.1807403564453125
0.1302337646484375,-0.0361480712890625,-0.1807403564453125
0.14300537109375,-0.0219268798828125,-0.1830902099609375
0.14300537109375,-0.0219268798828125,-0.1830902099609375
0.13970947265625,0.013702392578125,-0.0781097412109375
0.13970947265625,0.013702392578125,-0.0781097412109375
0.1348876953125,-0.0001373291015625,-0.0622100830078125
0.1064605712890625,-0.034423828125,-0.0600738525390625
0.092926025390625,-0.04461669921875,0.0117645263671875
0.0803985595703125,-0.013458251953125,0.0767364501953125
0.032440185546875,-0.004302978515625,0.11199951171875
-0.0179595947265625,0.010589599609375,0.165130615234375
-0.0807647705078125,0.0511016845703125,0.2143707275390625
-0.16949462890625,0.0888824462890625,0.2384490966796875
-0.222259521484375,0.073211669921875,0.3226776123046875
-0.28125,0.1256866455078125,0.441375732421875
-0.361907958984375,0.2145233154296875,0.54998779296875
-0.445068359375,0.2350006103515625,0.6018218994140625
-0.5430755615234375,0.24993896484375,0.6730499267578125
-0.616302490234375,0.272216796875,0.7951812744140625
-0.676483154296875,0.2891998291015625,0.937103271484375
-0.761749267578125,0.3347320556640625,1.1192169189453125
-0.81964111328125,0.3636932373046875,1.281219482421875
-0.864227294921875,0.3878173828125,1.4549407958984375
-0.9171295166015625,0.4274444580078125,1.60394287109375
-0.9584503173828125,0.450958251953125,1.7014312744140625
-0.9839935302734375,0.4734344482421875,1.8131103515625
-1.0175018310546875,0.5490570068359375,1.9158477783203125
-1.050750732421875,0.5730133056640625,1.9913787841796875
-1.070770263671875,0.5911712646484375,2.0878448486328125
-1.1445159912109375,0.5883331298828125,2.156524658203125
-1.2178497314453125,0.556060791015625,2.2062530517578125
-1.2484588623046875,0.5235443115234375,2.22430419921875
-1.3023223876953125,0.5455474853515625,2.1763153076171875
-1.2568817138671875,0.5147247314453125,2.120697021484375
-1.1996307373046875,0.4853973388671875,2.032623291015625
-1.144927978515625,0.4534149169921875,1.928558349609375
-1.112884521484375,0.376129150390625,1.81744384765625
-1.118927001953125,0.2849578857421875,1.7349700927734375
-1.13134765625,0.2550506591796875,1.647125244140625
-1.15667724609375,0.199920654296875,1.5337066650390625
-1.17877197265625,0.136016845703125,1.4409942626953125
-1.1558837890625,0.15313720703125,1.3641815185546875
-1.0828094482421875,0.1297760009765625,1.2691650390625
-0.99755859375,0.0953369140625,1.2018890380859375
-0.892852783203125,0.0574188232421875,1.11737060546875
-0.79840087890625,0.0223388671875,1.0527801513671875
-0.7425079345703125,-0.0077667236328125,0.998443603515625
-0.679656982421875,-0.012481689453125,0.90728759765625
-0.63140869140625,-0.0489959716796875,0.8090972900390625
-0.61376953125,-0.1008758544921875,0.6934356689453125
-0.56329345703125,-0.085845947265625,0.610321044921875
-0.5082855224609375,-0.00115966796875,0.520538330078125
-0.3965301513671875,-0.024383544921875,0.4216461181640625
-0.2575225830078125,-0.0012054443359375,0.31146240234375
-0.1153106689453125,0.0463714599609375,0.20782470703125
0.0322418212890625,0.0176849365234375,0.1383209228515625
0.1336212158203125,0.0355682373046875,0.060516357421875
0.1032562255859375,-0.0601959228515625,-0.098724365234375
0.0398712158203125,-0.20147705078125,-0.2230377197265625
0.08795166015625,-0.13262939453125,-0.2546234130859375
0.1063690185546875,-0.078125,-0.24853515625
0.1258392333984375,-0.0832672119140625,-0.2250823974609375
0.1784515380859375,-0.080841064453125,-0.2178955078125
0.22918701171875,-0.088623046875,-0.215789794921875
0.2563323974609375,-0.07843017578125,-0.1971893310546875
0.2665557861328125,-0.0589752197265625,-0.1613311767578125
0.248504638671875,-0.03515625,-0.132781982421875
0.2167816162109375,-0.037506103515625,-0.12237548828125
0.1874542236328125,-0.056060791015625,-0.098663330078125
0.1660308837890625,-0.0637359619140625,-0.0900115966796875
0.15716552734375,-0.0743408203125,-0.04998779296875
0.1722412109375,-0.0545196533203125,0.0139312744140625
0.167999267578125,-0.0415802001953125,0.0837554931640625
0.1650390625,-0.0355072021484375,0.16693115234375
0.13873291015625,-0.000732421875,0.2561492919921875
0.0781097412109375,0.031097412109375,0.3255462646484375
-0.03070068359375,0.010162353515625,0.3804168701171875
-0.1074371337890625,0.0189971923828125,0.4662628173828125
-0.1668853759765625,0.065826416015625,0.5798797607421875
-0.2232666015625,0.0771484375,0.7313385009765625
-0.26007080078125,0.0591583251953125,0.902801513671875
-0.2935028076171875,0.062286376953125,1.036834716796875
-0.339813232421875,0.0862274169921875,1.148223876953125
-0.3847808837890625,0.1519927978515625,1.258880615234375
-0.39898681640625,0.1969146728515625,1.3434906005859375
-0.4552459716796875,0.210906982421875,1.4035797119140625
-0.4972381591796875,0.204071044921875,1.57330322265625
-0.552276611328125,0.222442626953125,1.70654296875
-0.6217193603515625,0.2483062744140625,1.7988739013671875
-0.663848876953125,0.2799072265625,1.9197235107421875
-0.67840576171875,0.3657684326171875,2.08538818359375
-0.661590576171875,0.5055999755859375,2.2333831787109375
-0.6505279541015625,0.5804595947265625,2.3529052734375
-0.6359405517578125,0.61187744140625,2.4588165283203125
-0.6023101806640625,0.6607818603515625,2.54229736328125
-0.5730743408203125,0.6611175537109375,2.52655029296875
-0.5602264404296875,0.6385650634765625,2.483612060546875
-0.563140869140625,0.640106201171875,2.4087677001953125
-0.5445556640625,0.642364501953125,2.2725067138671875
-0.536285400390625,0.6208038330078125,2.109588623046875
-0.4852142333984375,0.569091796875,1.947906494140625
-0.46685791015625,0.512451171875,1.743408203125
-0.4525909423828125,0.3832550048828125,1.548919677734375
-0.467742919921875,0.3074951171875,1.33941650390625
-0.476715087890625,0.21112060546875,1.141693115234375
-0.4785003662109375,0.1109771728515625,0.94970703125
-0.471832275390625,0.0035247802734375,0.7865142822265625
-0.4359588623046875,-0.1123809814453125,0.6634521484375
-0.4437103271484375,-0.1838836669921875,0.5224151611328125
-0.4434356689453125,-0.304473876953125,0.3760223388671875
-0.4502105712890625,-0.443756103515625,0.243804931640625
-0.521148681640625,-0.5250091552734375,0.0950164794921875
-0.6043548583984375,-0.624786376953125,-0.0152740478515625
-0.6721038818359375,-0.7004547119140625,-0.094024658203125
-0.7256011962890625,-0.7494659423828125,-0.1211090087890625
-0.7490692138671875,-0.786346435546875,-0.11798095703125
-0.7690277099609375,-0.814788818359375,-0.109527587890625
-0.7448577880859375,-0.794891357421875,-0.030670166015625
-0.6728973388671875,-0.7039947509765625,-0.006378173828125
-0.5963592529296875,-0.6912384033203125,0.0449981689453125
-0.5178680419921875,-0.683258056640625,0.125946044921875
-0.4356689453125,-0.588531494140625,0.19561767578125
-0.3738555908203125,-0.5052490234375,0.23968505859375
-0.31463623046875,-0.473663330078125,0.26129150390625
-0.2632904052734375,-0.3885955810546875,0.29388427734375
-0.18572998046875,-0.2847900390625,0.3391265869140625
-0.0964813232421875,-0.1768646240234375,0.373321533203125
-0.0065765380859375,-0.0815887451171875,0.450225830078125
0.098876953125,0.0117340087890625,0.517242431640625
0.1798248291015625,0.094818115234375,0.60150146484375
0.2295379638671875,0.178741455078125,0.694427490234375
0.278778076171875,0.2707366943359375,0.7744293212890625
0.3072357177734375,0.338287353515625,0.8264923095703125
0.328704833984375,0.3895111083984375,0.8847198486328125
0.3500213623046875,0.459991455078125,0.9559478759765625
0.366241455078125,0.53875732421875,1.00439453125
0.3974761962890625,0.5613555908203125,1.01849365234375
0.4074554443359375,0.5514984130859375,1.017730712890625
0.4071044921875,0.5716094970703125,1.0300140380859375
0.385650634765625,0.5528564453125,1.07647705078125
0.3313140869140625,0.5401153564453125,1.1898193359375
0.267364501953125,0.544464111328125,1.228668212890625
0.2189178466796875,0.462982177734375,1.2777862548828125
0.1912384033203125,0.44305419921875,1.343841552734375
0.122467041015625,0.3835906982421875,1.3386688232421875
-0.001922607421875,0.255767822265625,1.343017578125
-0.177459716796875,0.16632080078125,1.3568267822265625
-0.35595703125,0.035430908203125,1.3972930908203125
-0.5694580078125,-0.1327056884765625,1.426177978515625
-0.7477874755859375,-0.2751312255859375,1.4459075927734375
-0.91705322265625,-0.46600341796875,1.4279022216796875
-1.0822296142578125,-0.585296630859375,1.4235382080078125
-1.1855926513671875,-0.6654205322265625,1.369384765625
-1.2646484375,-0.769989013671875,1.28619384765625
-1.3335418701171875,-0.80023193359375,1.20770263671875
-1.401397705078125,-0.804901123046875,1.07855224609375
-1.4772796630859375,-0.836578369140625,0.93121337890625
-1.500396728515625,-0.8227081298828125,0.8201904296875
-1.4546661376953125,-0.7675323486328125,0.7317047119140625
-1.3478851318359375,-0.6719818115234375,0.6646575927734375
-1.162017822265625,-0.566558837890625,0.618560791015625
-0.951568603515625,-0.43280029296875,0.6060638427734375
-0.746185302734375,-0.2535400390625,0.6212921142578125
-0.5387420654296875,-0.1756439208984375,0.6623382568359375
-0.3336639404296875,-0.1223602294921875,0.7601470947265625
-0.1723175048828125,0.0146484375,0.899200439453125
-0.0230255126953125,0.1226654052734375,1.05670166015625
0.07489013671875,0.189697265625,1.2137908935546875
0.114166259765625,0.2072601318359375,1.341094970703125
0.17083740234375,0.2653350830078125,1.4661102294921875
0.1956634521484375,0.3310699462890625,1.552276611328125
0.2166748046875,0.3345947265625,1.604217529296875
0.238677978515625,0.3460845947265625,1.63604736328125
0.2369537353515625,0.351959228515625,1.655548095703125
0.210052490234375,0.3067626953125,1.662628173828125
0.114715576171875,0.244598388671875,1.64666748046875
0.013671875,0.1611785888671875,1.6160125732421875
-0.1120147705078125,0.0554656982421875,1.546600341796875
-0.250885009765625,-0.0551910400390625,1.4771270751953125
-0.375152587890625,-0.1389923095703125,1.3895111083984375
-0.4989471435546875,-0.236114501953125,1.30438232421875
-0.64208984375,-0.31292724609375,1.20147705078125
-0.8007965087890625,-0.398162841796875,1.1104583740234375
-0.8718414306640625,-0.47698974609375,1.0287628173828125
-0.9293060302734375,-0.55316162109375,0.90765380859375
-0.97430419921875,-0.6531982421875,0.80059814453125
-0.9909820556640625,-0.712921142578125,0.7230987548828125
-1.0527191162109375,-0.7926788330078125,0.6302490234375
-1.123291015625,-0.864166259765625,0.551727294921875
-1.1511993408203125,-0.862945556640625,0.5066375732421875
-1.1461944580078125,-0.8798828125,0.4741668701171875
-1.0828399658203125,-0.8928375244140625,0.441070556640625
-0.9868621826171875,-0.86517333984375,0.4126129150390625
-0.86322021484375,-0.817718505859375,0.409088134765625
-0.7241363525390625,-0.7728118896484375,0.3983917236328125
-0.610137939453125,-0.7108154296875,0.3749237060546875
-0.5221710205078125,-0.6931915283203125,0.3482208251953125
-0.4640960693359375,-0.67486572265625,0.32696533203125
-0.4118804931640625,-0.6010589599609375,0.300811767578125
-0.35791015625,-0.559661865234375,0.29241943359375
-0.2977294921875,-0.52398681640625,0.2751617431640625
-0.2310638427734375,-0.471282958984375,0.266693115234375
-0.1604766845703125,-0.3808746337890625,0.2594757080078125
-0.0756988525390625,-0.287994384765625,0.2310638427734375
0.00103759765625,-0.2282562255859375,0.2081756591796875
0.06610107421875,-0.2008056640625,0.19586181640625
0.1417694091796875,-0.1654205322265625,0.1981658935546875
0.1982421875,-0.12335205078125,0.2159423828125
0.2369384765625,-0.1021575927734375,0.243743896484375
0.27557373046875,-0.0765838623046875,0.27886962890625
0.31280517578125,-0.02685546875,0.335113525390625
0.3394012451171875,0.0505523681640625,0.3785552978515625
0.3600311279296875,0.1026611328125,0.40972900390625
0.3662261962890625,0.154388427734375,0.4527587890625
0.3662261962890625,0.154388427734375,0.4527587890625
0.3723297119140625,0.24249267578125,0.5267791748046875
0.3723297119140625,0.24249267578125,0.5267791748046875
0.336517333984375,0.2829437255859375,0.581085205078125
0.336517333984375,0.2829437255859375,0.581085205078125
0.3050537109375,0.30291748046875,0.6161956787109375
0.288177490234375,0.308929443359375,0.6696014404296875
0.2613067626953125,0.3343353271484375,0.7152252197265625
0.2223358154296875,0.3495635986328125,0.749908447265625
0.181243896484375,0.3587188720703125,0.779266357421875
0.15496826171875,0.3886260986328125,0.83013916015625
0.1548919677734375,0.421051025390625,0.8996124267578125
0.1454925537109375,0.43231201171875,0.956451416015625
0.131988525390625,0.421661376953125,0.9909515380859375
0.1175689697265625,0.41754150390625,1.0251312255859375
0.09625244140625,0.4432220458984375,1.07464599609375
0.06988525390625,0.4817657470703125,1.1309051513671875
0.0289764404296875,0.5284271240234375,1.174835205078125
-0.00311279296875,0.5684356689453125,1.2144927978515625
-0.034881591796875,0.58465576171875,1.2499542236328125
-0.050445556640625,0.5733489990234375,1.3133544921875
-0.08343505859375,0.552215576171875,1.3916015625
-0.111083984375,0.5791473388671875,1.4546661376953125
-0.149505615234375,0.6568450927734375,1.496612548828125
-0.1795806884765625,0.6884002685546875,1.516632080078125
-0.2229156494140625,0.7052459716796875,1.5261993408203125
-0.2889251708984375,0.714385986328125,1.561981201171875
-0.342437744140625,0.656829833984375,1.64862060546875
-0.39862060546875,0.6168060302734375,1.7333526611328125
-0.46893310546875,0.5858306884765625,1.763427734375
-0.540985107421875,0.4903411865234375,1.741729736328125
-0.6127166748046875,0.381500244140625,1.689300537109375
-0.670867919921875,0.318756103515625,1.6109771728515625
-0.688385009765625,0.2490234375,1.47705078125
-0.6663818359375,0.1321258544921875,1.3306427001953125
-0.64031982421875,0.0442352294921875,1.21258544921875
-0.6177825927734375,-0.010009765625,1.1126708984375
-0.6132965087890625,-0.06304931640625,1.0147857666015625
-0.633941650390625,-0.0802001953125,0.931427001953125
-0.6602325439453125,-0.094512939453125,0.8553009033203125
-0.713623046875,-0.1378021240234375,0.7747039794921875
-0.7480316162109375,-0.1735687255859375,0.7364654541015625
-0.7379913330078125,-0.1864776611328125,0.721282958984375
-0.72833251953125,-0.182342529296875,0.7095489501953125
-0.7244415283203125,-0.179901123046875,0.6814117431640625
-0.6877899169921875,-0.17352294921875,0.67340087890625
-0.598358154296875,-0.12786865234375,0.66845703125
-0.443695068359375,-0.152740478515625,0.6533966064453125
-0.31732177734375,-0.16534423828125,0.621551513671875
-0.323638916015625,-0.087982177734375,0.5821380615234375
-0.280059814453125,-0.0802764892578125,0.5594482421875
-0.24420166015625,-0.083221435546875,0.5076141357421875
-0.2163543701171875,-0.0728759765625,0.4442596435546875
-0.18048095703125,-0.07659912109375,0.394134521484375
-0.1568603515625,-0.1043853759765625,0.3462982177734375
-0.1516571044921875,-0.1256561279296875,0.256988525390625
-0.1607208251953125,-0.133544921875,0.1394805908203125
-0.1656341552734375,-0.1410369873046875,0.0341644287109375
-0.183441162109375,-0.1897735595703125,-0.0775146484375
-0.2118682861328125,-0.259185791015625,-0.2666015625
-0.268280029296875,-0.2980194091796875,-0.3341827392578125
