Acceleration_X,Acceleration_Y,Acceleration_Z
-0.4821014404296875,-0.7215118408203125,-0.5643463134765625
-0.5168304443359375,-0.7178497314453125,-0.544464111328125
-0.525115966796875,-0.7265625,-0.5356292724609375
-0.529693603515625,-0.762542724609375,-0.5262603759765625
-0.521240234375,-0.7911376953125,-0.5355987548828125
-0.5243988037109375,-0.8217926025390625,-0.5569305419921875
-0.5345916748046875,-0.8569793701171875,-0.545257568359375
-0.548095703125,-0.8682708740234375,-0.54522705078125
-0.5765533447265625,-0.884857177734375,-0.5858306884765625
-0.6055755615234375,-0.9218902587890625,-0.58905029296875
-0.633697509765625,-0.96624755859375,-0.6098175048828125
-0.6621551513671875,-0.9994964599609375,-0.6318359375
-0.70452880859375,-1.00872802734375,-0.6347808837890625
-0.7756195068359375,-1.0147247314453125,-0.670654296875
-0.8233184814453125,-1.0316162109375,-0.7047882080078125
-0.8253631591796875,-1.053741455078125,-0.721038818359375
-0.830047607421875,-1.0479736328125,-0.75048828125
-0.84527587890625,-1.0403289794921875,-0.77484130859375
-0.8486175537109375,-1.031982421875,-0.7846221923828125
-0.824005126953125,-1.0172271728515625,-0.7806243896484375
-0.8023529052734375,-1.0041961669921875,-0.7888641357421875
-0.8047027587890625,-0.9954833984375,-0.78289794921875
-0.820220947265625,-1.000274658203125,-0.776947021484375
-0.8250579833984375,-1.0034942626953125,-0.7581634521484375
-0.825225830078125,-1.0008697509765625,-0.717681884765625
-0.8215484619140625,-0.9806671142578125,-0.6792144775390625
-0.7957763671875,-0.9613189697265625,-0.6463165283203125
-0.7413787841796875,-0.9469757080078125,-0.6112823486328125
-0.6761322021484375,-0.92938232421875,-0.589935302734375
-0.647003173828125,-0.904022216796875,-0.5804290771484375
-0.63043212890625,-0.8794097900390625,-0.5702972412109375
-0.6165771484375,-0.867340087890625,-0.552703857421875
-0.610626220703125,-0.870391845703125,-0.5256500244140625
-0.60052490234375,-0.8681488037109375,-0.494903564453125
-0.5793304443359375,-0.8487548828125,-0.4485015869140625
-0.5482635498046875,-0.8394775390625,-0.4336700439453125
-0.5063934326171875,-0.8350677490234375,-0.4022369384765625
-0.4626922607421875,-0.821014404296875,-0.37652587890625
-0.4324188232421875,-0.8165130615234375,-0.3768463134765625
-0.4352264404296875,-0.8138885498046875,-0.3657379150390625
-0.4403533935546875,-0.802703857421875,-0.34564208984375
-0.425201416015625,-0.7942047119140625,-0.312896728515625
-0.405853271484375,-0.78106689453125,-0.285400390625
-0.371185302734375,-0.7606353759765625,-0.24383544921875
-0.3141326904296875,-0.7504119873046875,-0.2180023193359375
-0.26727294921875,-0.7463226318359375,-0.190216064453125
-0.231536865234375,-0.7203216552734375,-0.13946533203125
-0.1932373046875,-0.6810455322265625,-0.09332275390625
-0.1737518310546875,-0.6628265380859375,-0.0686492919921875
-0.2051849365234375,-0.6447296142578125,-0.0607452392578125
-0.247802734375,-0.6167449951171875,-0.0475921630859375
-0.2562408447265625,-0.5996246337890625,-0.0215911865234375
-0.2273712158203125,-0.58203125,-0.0043487548828125
-0.2088470458984375,-0.5594635009765625,-0.004547119140625
-0.1641998291015625,-0.5255889892578125,0.017364501953125
-0.0990753173828125,-0.497406005859375,0.02325439453125
-0.0332183837890625,-0.4883880615234375,0.0468292236328125
0.020599365234375,-0.477874755859375,0.090789794921875
0.0501861572265625,-0.44775390625,0.12188720703125
0.0575714111328125,-0.4192352294921875,0.143524169921875
0.0535888671875,-0.3821868896484375,0.1576385498046875
0.045501708984375,-0.3408355712890625,0.1463470458984375
0.04803466796875,-0.301544189453125,0.1369476318359375
0.04803466796875,-0.2658233642578125,0.1422271728515625
0.0565185546875,-0.207000732421875,0.134735107421875
0.10150146484375,-0.18017578125,0.106781005859375
0.1607666015625,-0.2019195556640625,0.0862579345703125
0.2148284912109375,-0.225067138671875,0.0709991455078125
0.2487945556640625,-0.24139404296875,0.0553436279296875
0.239288330078125,-0.238616943359375,0.0444793701171875
0.1966552734375,-0.2271270751953125,0.0399169921875
0.1480712890625,-0.2421875,0.0152740478515625
0.1059417724609375,-0.281036376953125,-0.0045166015625
0.0828094482421875,-0.3123321533203125,-0.0039520263671875
0.065887451171875,-0.3495941162109375,-0.0099639892578125
0.0487823486328125,-0.394561767578125,0.00665283203125
0.0177764892578125,-0.4064788818359375,0.021453857421875
-0.01837158203125,-0.39129638671875,0.02545166015625
-0.054412841796875,-0.371063232421875,0.0383148193359375
-0.10992431640625,-0.340728759765625,0.033935546875
-0.1597747802734375,-0.3423614501953125,0.0047760009765625
-0.19683837890625,-0.4185791015625,-0.060455322265625
-0.2518310546875,-0.5155487060546875,-0.099639892578125
-0.3089141845703125,-0.5514373779296875,-0.096588134765625
-0.36468505859375,-0.558135986328125,-0.0987091064453125
-0.399505615234375,-0.546783447265625,-0.1021728515625
-0.443756103515625,-0.4618377685546875,-0.12353515625
-0.500457763671875,-0.3858489990234375,-0.17474365234375
-0.5375518798828125,-0.4164581298828125,-0.222015380859375
-0.59759521484375,-0.5273895263671875,-0.2874755859375
-0.6563262939453125,-0.6750030517578125,-0.37274169921875
-0.7506256103515625,-0.8281097412109375,-0.4508209228515625
-0.81884765625,-0.939697265625,-0.4771575927734375
-0.8723297119140625,-1.0142974853515625,-0.5016326904296875
-0.946563720703125,-1.087799072265625,-0.542724609375
-1.030303955078125,-1.203094482421875,-0.57373046875
-1.0906219482421875,-1.3363189697265625,-0.642730712890625
-1.1584625244140625,-1.4881439208984375,-0.7023468017578125
-1.2105255126953125,-1.6278533935546875,-0.7547149658203125
-1.2934722900390625,-1.7237548828125,-0.8594818115234375
-1.3681640625,-1.77935791015625,-0.9229278564453125
-1.3672637939453125,-1.8090362548828125,-0.9876251220703125
-1.3388214111328125,-1.840423583984375,-1.051849365234375
-1.305023193359375,-1.83251953125,-1.110076904296875
-1.26580810546875,-1.773773193359375,-1.1637420654296875
-1.2303619384765625,-1.693572998046875,-1.1907958984375
-1.215362548828125,-1.61358642578125,-1.21112060546875
-1.197509765625,-1.510955810546875,-1.1978302001953125
-1.1412200927734375,-1.4192352294921875,-1.180572509765625
-1.0864410400390625,-1.3248748779296875,-1.1614532470703125
-1.0008697509765625,-1.2117767333984375,-1.1447601318359375
-0.892822265625,-1.090179443359375,-1.1199798583984375
-0.7534332275390625,-0.9545745849609375,-1.106719970703125
-0.5953216552734375,-0.852691650390625,-1.0853271484375
-0.478668212890625,-0.7647857666015625,-1.113983154296875
-0.4286651611328125,-0.7169952392578125,-1.147735595703125
-0.33551025390625,-0.673736572265625,-1.10809326171875
-0.2674713134765625,-0.6271820068359375,-1.1024017333984375
-0.204376220703125,-0.5812225341796875,-1.0341949462890625
-0.1456146240234375,-0.532440185546875,-0.97686767578125
-0.09722900390625,-0.46514892578125,-0.898590087890625
-0.06689453125,-0.3882598876953125,-0.796875
-0.0728912353515625,-0.347625732421875,-0.707733154296875
-0.0965423583984375,-0.3133392333984375,-0.5951080322265625
-0.12701416015625,-0.2919921875,-0.470703125
-0.1891021728515625,-0.2875823974609375,-0.347747802734375
-0.2581024169921875,-0.3051605224609375,-0.247467041015625
-0.3083038330078125,-0.336151123046875,-0.0910491943359375
-0.3614959716796875,-0.3340911865234375,0.0620574951171875
-0.40283203125,-0.34576416015625,0.2313995361328125
-0.4561920166015625,-0.366363525390625,0.41705322265625
-0.543304443359375,-0.364349365234375,0.571990966796875
-0.631591796875,-0.3134002685546875,0.733062744140625
-0.7321624755859375,-0.300048828125,0.83502197265625
-0.818450927734375,-0.313751220703125,0.8625030517578125
-0.8930511474609375,-0.34002685546875,0.8796234130859375
-0.9453125,-0.40234375,0.8969879150390625
-0.9543304443359375,-0.4637451171875,0.88934326171875
-0.969146728515625,-0.49896240234375,0.88201904296875
-0.9704742431640625,-0.5420074462890625,0.8499908447265625
-0.9719085693359375,-0.5868988037109375,0.8126068115234375
-0.962432861328125,-0.5903472900390625,0.7727203369140625
-0.9275665283203125,-0.613525390625,0.72296142578125
-0.899749755859375,-0.6174774169921875,0.68011474609375
-0.85736083984375,-0.6443023681640625,0.5982513427734375
-0.798919677734375,-0.6960601806640625,0.485504150390625
-0.7252044677734375,-0.7296600341796875,0.350128173828125
-0.6499481201171875,-0.7826080322265625,0.2205963134765625
-0.59063720703125,-0.7899627685546875,0.080230712890625
-0.499481201171875,-0.78466796875,-0.0794830322265625
-0.3896026611328125,-0.7431640625,-0.2156829833984375
-0.2848663330078125,-0.7217254638671875,-0.3826446533203125
-0.172271728515625,-0.696258544921875,-0.530914306640625
-0.0530548095703125,-0.6179962158203125,-0.6692047119140625
0.0532684326171875,-0.5497283935546875,-0.7775421142578125
0.1151885986328125,-0.504119873046875,-0.8393707275390625
0.1016998291015625,-0.4944610595703125,-0.8928070068359375
0.0652618408203125,-0.50384521484375,-0.9170074462890625
0.0022735595703125,-0.52679443359375,-0.8954925537109375
-0.0927276611328125,-0.5716552734375,-0.842559814453125
-0.2047271728515625,-0.633026123046875,-0.77606201171875
-0.31756591796875,-0.6684722900390625,-0.6824188232421875
-0.4375,-0.71197509765625,-0.5823211669921875
-0.5864715576171875,-0.786102294921875,-0.4835662841796875
-0.74896240234375,-0.8595733642578125,-0.414703369140625
-0.9064483642578125,-0.9469146728515625,-0.331695556640625
-1.04034423828125,-1.0286102294921875,-0.266204833984375
-1.1475830078125,-1.082672119140625,-0.2473602294921875
-1.2309722900390625,-1.1488800048828125,-0.2046966552734375
-1.30828857421875,-1.2406768798828125,-0.1575927734375
-1.4289703369140625,-1.301055908203125,-0.054901123046875
-1.577728271484375,-1.3486328125,0.065765380859375
-1.714202880859375,-1.4323883056640625,0.1164093017578125
-1.8501129150390625,-1.4556121826171875,0.1546783447265625
-1.9575042724609375,-1.3916778564453125,0.1781768798828125
-2.00128173828125,-1.3177947998046875,0.1890716552734375
-1.9877471923828125,-1.295623779296875,0.1447906494140625
-1.9340362548828125,-1.2747039794921875,0.12689208984375
-1.84295654296875,-1.2490692138671875,0.1031341552734375
-1.72686767578125,-1.22601318359375,0.0954437255859375
-1.57769775390625,-1.1849365234375,0.1004180908203125
-1.414398193359375,-1.1043548583984375,0.1116180419921875
-1.2664947509765625,-1.068328857421875,0.1143341064453125
-1.138214111328125,-1.0118560791015625,0.10400390625
-1.0126190185546875,-0.898590087890625,0.10540771484375
-0.883270263671875,-0.8246612548828125,0.1166229248046875
-0.883270263671875,-0.8246612548828125,0.1166229248046875
-0.6529541015625,-0.643096923828125,0.14117431640625
-0.5210723876953125,-0.553802490234375,0.1552886962890625
-0.40948486328125,-0.4571685791015625,0.130828857421875
-0.369659423828125,-0.3673248291015625,0.0560150146484375
-0.369659423828125,-0.3673248291015625,0.0560150146484375
-0.1812896728515625,-0.188232421875,0.038055419921875
-0.0944671630859375,-0.0941925048828125,0.003814697265625
-0.0092620849609375,-0.026611328125,-0.014923095703125
0.08209228515625,0.0602569580078125,-0.0173797607421875
0.1956787109375,0.1437225341796875,-0.05767822265625
0.262481689453125,0.1737213134765625,-0.1346282958984375
0.266082763671875,0.17352294921875,-0.18048095703125
0.31011962890625,0.1909027099609375,-0.1732177734375
0.330718994140625,0.2012939453125,-0.1768646240234375
0.3450164794921875,0.1875457763671875,-0.1638641357421875
0.395751953125,0.1940155029296875,-0.1559600830078125
0.443267822265625,0.205474853515625,-0.1321258544921875
0.443267822265625,0.205474853515625,-0.1321258544921875
0.4744720458984375,0.1796112060546875,-0.140533447265625
0.4744720458984375,0.1796112060546875,-0.140533447265625
0.3935089111328125,0.123138427734375,-0.0910186767578125
0.3935089111328125,0.123138427734375,-0.0910186767578125
0.20074462890625,0.0294189453125,-0.0765228271484375
0.1228485107421875,-0.0302734375,-0.0659942626953125
0.1228485107421875,-0.0302734375,-0.0659942626953125
0.0392913818359375,-0.09393310546875,-0.0352783203125
-0.0221099853515625,-0.1564788818359375,0.013153076171875
-0.102935791015625,-0.279876708984375,0.0735931396484375
-0.4137115478515625,-0.4266510009765625,0.298980712890625
-0.4137115478515625,-0.4266510009765625,0.298980712890625
-0.56793212890625,-0.5182037353515625,0.3722076416015625
-0.745697021484375,-0.5742340087890625,0.430450439453125
-0.91552734375,-0.6060028076171875,0.46478271484375
-1.0138702392578125,-0.7083740234375,0.464141845703125
-1.1124420166015625,-0.8027191162109375,0.478515625
-1.255340576171875,-0.8238677978515625,0.530548095703125
-1.4376983642578125,-0.87939453125,0.5934906005859375
-1.60986328125,-0.974700927734375,0.634033203125
-1.7566680908203125,-1.0197906494140625,0.6683197021484375
-1.9070587158203125,-1.001312255859375,0.713134765625
-1.9964599609375,-0.992401123046875,0.7721405029296875
-2.081878662109375,-0.976593017578125,0.7856292724609375
-2.1670074462890625,-1.0290985107421875,0.8197174072265625
-2.225555419921875,-1.0391387939453125,0.8505859375
-2.295013427734375,-1.019805908203125,0.8852386474609375
-2.3321533203125,-0.9998321533203125,0.91876220703125
-2.3517913818359375,-0.9807891845703125,0.9158477783203125
-2.352386474609375,-0.95770263671875,0.915130615234375
-2.294708251953125,-0.9329376220703125,0.87408447265625
-2.2366180419921875,-0.9154815673828125,0.817657470703125
-2.10845947265625,-0.844757080078125,0.76690673828125
-1.9488372802734375,-0.7742767333984375,0.6892242431640625
-1.783416748046875,-0.741607666015625,0.6272735595703125
-1.6383819580078125,-0.69476318359375,0.5720672607421875
-1.499908447265625,-0.668792724609375,0.562164306640625
-1.3555450439453125,-0.6325225830078125,0.527099609375
-1.2494659423828125,-0.609619140625,0.4735565185546875
-1.1473236083984375,-0.54766845703125,0.4221038818359375
-1.0426025390625,-0.4128570556640625,0.4032440185546875
-0.8587646484375,-0.2493438720703125,0.3842010498046875
-0.692108154296875,-0.201416015625,0.3316650390625
-0.5337982177734375,-0.1466522216796875,0.3071746826171875
-0.3838348388671875,-0.09228515625,0.30328369140625
-0.2708587646484375,-0.0849609375,0.269195556640625
-0.1880645751953125,-0.1054840087890625,0.2490997314453125
-0.056060791015625,-0.0602264404296875,0.228240966796875
0.055450439453125,0.0087432861328125,0.190704345703125
0.144622802734375,0.061248779296875,0.145111083984375
0.24957275390625,0.114105224609375,0.10546875
0.3516845703125,0.1586456298828125,0.04644775390625
0.41278076171875,0.12255859375,-0.0061798095703125
0.4502105712890625,0.1258087158203125,-0.0240325927734375
0.4841766357421875,0.1253814697265625,-0.11480712890625
0.513427734375,0.0829925537109375,-0.166961669921875
0.564239501953125,0.086456298828125,-0.194244384765625
0.6048583984375,0.084625244140625,-0.234344482421875
0.6224365234375,0.0538482666015625,-0.2461395263671875
0.6272735595703125,0.070159912109375,-0.2264556884765625
0.612823486328125,0.0641326904296875,-0.22039794921875
0.5445098876953125,0.0122528076171875,-0.2045440673828125
0.45928955078125,-0.02386474609375,-0.1605072021484375
0.3616790771484375,-0.034423828125,-0.127899169921875
0.2184295654296875,-0.0772857666015625,-0.1243896484375
0.1073760986328125,-0.13116455078125,-0.0615997314453125
0.02655029296875,-0.150604248046875,0.014892578125
-0.0854034423828125,-0.1936492919921875,0.10589599609375
-0.2371978759765625,-0.254730224609375,0.1921234130859375
-0.3964385986328125,-0.3004913330078125,0.2835845947265625
-0.6376953125,-0.3456573486328125,0.3600616455078125
-0.8824462890625,-0.4069671630859375,0.453765869140625
-1.081878662109375,-0.465362548828125,0.5066070556640625
-1.22808837890625,-0.55413818359375,0.5743255615234375
-1.3394927978515625,-0.6492462158203125,0.6467132568359375
-1.4564361572265625,-0.7111053466796875,0.66851806640625
-1.56884765625,-0.775238037109375,0.695159912109375
-1.65643310546875,-0.787353515625,0.7606353759765625
-1.80950927734375,-0.8166961669921875,0.8459930419921875
-1.9628753662109375,-0.8367462158203125,0.979034423828125
-2.0588226318359375,-0.8532257080078125,1.0567474365234375
-2.1488189697265625,-0.86834716796875,1.11468505859375
-2.1675872802734375,-0.84954833984375,1.1263275146484375
-2.1588897705078125,-0.874298095703125,1.0949249267578125
-2.14599609375,-0.862030029296875,1.0760955810546875
-2.09814453125,-0.821258544921875,1.058746337890625
-1.99969482421875,-0.783660888671875,1.070098876953125
-1.899658203125,-0.7534637451171875,1.0692138671875
-1.7508392333984375,-0.70953369140625,1.0601806640625
-1.554534912109375,-0.6459503173828125,1.070159912109375
-1.3615875244140625,-0.5651092529296875,1.0465850830078125
-1.2633209228515625,-0.5081939697265625,0.969024658203125
-1.1707763671875,-0.4956512451171875,0.916595458984375
-1.069854736328125,-0.4183197021484375,0.91241455078125
-0.9913482666015625,-0.3574066162109375,0.8956146240234375
-0.9122772216796875,-0.344085693359375,0.8640899658203125
-0.804107666015625,-0.3182220458984375,0.8329925537109375
-0.7307891845703125,-0.306396484375,0.7958831787109375
-0.674835205078125,-0.2674713134765625,0.7891845703125
-0.608184814453125,-0.21820068359375,0.804443359375
-0.5646514892578125,-0.1920166015625,0.81982421875
-0.5251312255859375,-0.144500732421875,0.862274169921875
-0.4583282470703125,-0.0799713134765625,0.896484375
-0.3679962158203125,-0.0584259033203125,0.92657470703125
-0.327362060546875,-0.0695648193359375,0.900726318359375
-0.3375701904296875,-0.094024658203125,0.8645172119140625
-0.2894439697265625,-0.1016082763671875,0.8544921875
-0.2201080322265625,-0.1130523681640625,0.82098388671875
-0.1920166015625,-0.14923095703125,0.786865234375
-0.12762451171875,-0.1726531982421875,0.7234649658203125
-0.050567626953125,-0.2118988037109375,0.66827392578125
0.011962890625,-0.2769775390625,0.5816497802734375
0.0294952392578125,-0.38055419921875,0.4617919921875
0.0224761962890625,-0.4493255615234375,0.3668365478515625
-0.0017852783203125,-0.565704345703125,0.2246551513671875
-0.04364013671875,-0.7439727783203125,0.04815673828125
-0.068817138671875,-0.8874664306640625,-0.1165313720703125
-0.092315673828125,-0.981201171875,-0.2549285888671875
-0.1197662353515625,-1.0205535888671875,-0.4152374267578125
-0.1760711669921875,-1.0716552734375,-0.5651092529296875
-0.2458038330078125,-1.1037445068359375,-0.6859588623046875
-0.3209991455078125,-1.113067626953125,-0.7573394775390625
-0.380340576171875,-1.0988311767578125,-0.760986328125
-0.4351043701171875,-1.0714569091796875,-0.75494384765625
-0.4442291259765625,-1.033721923828125,-0.6994476318359375
-0.3919219970703125,-0.994842529296875,-0.596160888671875
-0.3193359375,-0.9479827880859375,-0.4462738037109375
-0.238311767578125,-0.8753814697265625,-0.265625
-0.1661224365234375,-0.78765869140625,-0.071136474609375
-0.1219940185546875,-0.6982879638671875,0.1156463623046875
-0.0828704833984375,-0.613922119140625,0.2890777587890625
-0.03680419921875,-0.5430908203125,0.4324493408203125
-0.0275421142578125,-0.4967193603515625,0.559417724609375
-0.0204620361328125,-0.4371490478515625,0.6476898193359375
-0.01629638671875,-0.36126708984375,0.7100677490234375
-0.0059356689453125,-0.275665283203125,0.772003173828125
0.0102996826171875,-0.2169647216796875,0.8141632080078125
0.029876708984375,-0.1548004150390625,0.84722900390625
0.0619354248046875,-0.08685302734375,0.848052978515625
0.0872650146484375,-0.04925537109375,0.8179779052734375
0.0941619873046875,0.005950927734375,0.729736328125
0.0834197998046875,0.01519775390625,0.612335205078125
0.07281494140625,-0.0261993408203125,0.4912567138671875
0.0697174072265625,-0.048797607421875,0.3612060546875
0.037567138671875,-0.1280059814453125,0.2180328369140625
-0.00555419921875,-0.2218780517578125,0.134796142578125
-0.0599212646484375,-0.275238037109375,0.0304107666015625
-0.1488800048828125,-0.37530517578125,-0.034942626953125
-0.237640380859375,-0.4665374755859375,-0.07696533203125
-0.3516387939453125,-0.568389892578125,-0.1006622314453125
-0.47064208984375,-0.671295166015625,-0.1131439208984375
-0.6134033203125,-0.77398681640625,-0.1141204833984375
-0.7638092041015625,-0.8973846435546875,-0.056243896484375
-0.88226318359375,-0.9859771728515625,0.004638671875
-0.98583984375,-1.053497314453125,0.0460205078125
-1.0999755859375,-1.0614776611328125,0.1553192138671875
-1.1534576416015625,-0.992645263671875,0.24713134765625
-1.189910888671875,-0.9631805419921875,0.3229522705078125
-1.232391357421875,-0.882965087890625,0.4115447998046875
-1.2530364990234375,-0.7903594970703125,0.524261474609375
-1.2758941650390625,-0.7124176025390625,0.63323974609375
-1.27166748046875,-0.5699462890625,0.770477294921875
-1.2440185546875,-0.4763031005859375,0.896484375
-1.19842529296875,-0.371368408203125,1.0151824951171875
-1.1600799560546875,-0.2490692138671875,1.1532135009765625
-1.1451568603515625,-0.1689453125,1.3095703125
-1.1395721435546875,-0.1218109130859375,1.4343109130859375
-1.120941162109375,-0.0468902587890625,1.562255859375
-1.089447021484375,0.0181121826171875,1.653167724609375
-1.057586669921875,0.0264434814453125,1.7210693359375
-1.013336181640625,0.0567779541015625,1.767059326171875
-0.9923553466796875,0.044952392578125,1.76068115234375
-0.9632110595703125,0.052459716796875,1.7392425537109375
-0.9048919677734375,0.07745361328125,1.6802825927734375
-0.84893798828125,0.04547119140625,1.604583740234375
-0.81793212890625,0.0198516845703125,1.4964447021484375
-0.7689208984375,-0.033538818359375,1.3675384521484375
-0.7321319580078125,-0.086090087890625,1.205291748046875
-0.717041015625,-0.1387481689453125,1.0274200439453125
-0.6942596435546875,-0.189788818359375,0.8480987548828125
-0.67596435546875,-0.24359130859375,0.6900482177734375
-0.6617431640625,-0.27081298828125,0.5130767822265625
-0.6672210693359375,-0.3042449951171875,0.3645782470703125
-0.670806884765625,-0.3200836181640625,0.227996826171875
-0.6593017578125,-0.3058319091796875,0.1035919189453125
-0.668701171875,-0.340240478515625,-0.02508544921875
-0.7203216552734375,-0.425048828125,-0.109527587890625
-0.763885498046875,-0.480712890625,-0.1739501953125
-0.810791015625,-0.5522308349609375,-0.1951141357421875
-0.876312255859375,-0.6042633056640625,-0.1849212646484375
-0.9309844970703125,-0.5968017578125,-0.171051025390625
-0.9627838134765625,-0.6414337158203125,-0.126739501953125
-1.0039520263671875,-0.7092742919921875,-0.0363616943359375
-1.049957275390625,-0.7229766845703125,0.091339111328125
-1.12322998046875,-0.7377471923828125,0.2631988525390625
-1.19427490234375,-0.75384521484375,0.412078857421875
-1.296844482421875,-0.7636871337890625,0.58734130859375
-1.414215087890625,-0.748992919921875,0.780029296875
-1.5262908935546875,-0.7308197021484375,0.9357452392578125
-1.6629638671875,-0.69708251953125,1.0572967529296875
-1.7470245361328125,-0.66705322265625,1.172943115234375
-1.771575927734375,-0.6219024658203125,1.24371337890625
-1.794219970703125,-0.5970916748046875,1.272674560546875
-1.773956298828125,-0.591094970703125,1.2778472900390625
-1.7260894775390625,-0.572235107421875,1.26007080078125
-1.6869354248046875,-0.54931640625,1.2101593017578125
-1.6361236572265625,-0.555877685546875,1.16021728515625
-1.5770721435546875,-0.4816741943359375,1.11602783203125
-1.4287872314453125,-0.3488311767578125,1.0515594482421875
-1.245391845703125,-0.3551025390625,0.963165283203125
-1.0442352294921875,-0.251312255859375,0.894744873046875
-0.831756591796875,-0.1770172119140625,0.789886474609375
-0.831756591796875,-0.1770172119140625,0.789886474609375
-0.4972381591796875,-0.1125335693359375,0.573455810546875
-0.3384552001953125,-0.0458526611328125,0.4725799560546875
-0.1791839599609375,-0.0157012939453125,0.3972625732421875
-0.000518798828125,0.010650634765625,0.32684326171875
0.162872314453125,0.0105133056640625,0.2510986328125
0.162872314453125,0.0105133056640625,0.2510986328125
0.35186767578125,-0.040283203125,0.142669677734375
0.35186767578125,-0.040283203125,0.142669677734375
0.4718170166015625,0.006591796875,0.120697021484375
0.4718170166015625,0.006591796875,0.120697021484375
0.4954376220703125,0.01104736328125,0.0931396484375
0.4954376220703125,0.01104736328125,0.0931396484375
0.48736572265625,0.0097198486328125,0.0715484619140625
0.496856689453125,0.019012451171875,0.0868072509765625
0.5015106201171875,0.048919677734375,0.092529296875
0.5052032470703125,0.046051025390625,0.060333251953125
0.4895782470703125,0.0493927001953125,0.0422515869140625
0.46417236328125,0.0363311767578125,0.0337982177734375
0.41766357421875,0.0093536376953125,0.0097808837890625
0.3642120361328125,0.0120086669921875,0.0053863525390625
0.32208251953125,0.0131072998046875,-0.005157470703125
0.28662109375,-0.007781982421875,0.0076904296875
0.2388763427734375,-0.0184478759765625,0.060150146484375
0.185882568359375,-0.049072265625,0.1220245361328125
0.143707275390625,-0.06048583984375,0.138946533203125
0.086700439453125,-0.0611114501953125,0.227569580078125
0.029388427734375,-0.055328369140625,0.328338623046875
-0.072998046875,-0.0930328369140625,0.3914337158203125
-0.1944122314453125,-0.1306610107421875,0.4820098876953125
-0.30267333984375,-0.1203155517578125,0.596282958984375
-0.3933563232421875,-0.106689453125,0.73687744140625
-0.499114990234375,-0.1493988037109375,0.8115386962890625
-0.5955810546875,-0.254150390625,0.8291473388671875
-0.712127685546875,-0.27838134765625,0.9100799560546875
-0.8546600341796875,-0.23577880859375,0.9610595703125
-0.9834136962890625,-0.228668212890625,1.01177978515625
-1.134765625,-0.2355804443359375,1.10113525390625
-1.293701171875,-0.27838134765625,1.175262451171875
-1.46875,-0.3056488037109375,1.2442474365234375
-1.6299896240234375,-0.2758026123046875,1.3129119873046875
-1.8251495361328125,-0.200836181640625,1.3686676025390625
-1.973663330078125,-0.167694091796875,1.4110565185546875
-2.1015472412109375,-0.159698486328125,1.436431884765625
-2.1978912353515625,-0.1671295166015625,1.4641876220703125
-2.2838134765625,-0.2007293701171875,1.4764251708984375
-2.3529205322265625,-0.2463226318359375,1.479736328125
-2.4120941162109375,-0.268829345703125,1.48162841796875
-2.46124267578125,-0.29168701171875,1.4916229248046875
-2.4268646240234375,-0.1868743896484375,1.4545135498046875
-2.3142547607421875,-0.0684661865234375,1.3851776123046875
-2.1898193359375,-0.0602874755859375,1.316375732421875
-2.029022216796875,-0.04876708984375,1.222503662109375
-1.89990234375,-0.050628662109375,1.09759521484375
-1.7615509033203125,-0.03619384765625,0.99896240234375
-1.68408203125,-0.0673370361328125,0.906524658203125
-1.6013031005859375,-0.0970001220703125,0.83245849609375
-1.515228271484375,-0.122406005859375,0.773284912109375
-1.4093780517578125,-0.057861328125,0.7315216064453125
-1.1430816650390625,0.1312408447265625,0.660675048828125
-0.8969573974609375,0.104522705078125,0.6221160888671875
-0.6562957763671875,0.1326446533203125,0.5813446044921875
-0.47003173828125,0.10650634765625,0.510833740234375
-0.4922943115234375,-0.02398681640625,0.40179443359375
-0.49066162109375,-0.125396728515625,0.3564605712890625
-0.4603271484375,-0.1316070556640625,0.377105712890625
-0.458892822265625,-0.136383056640625,0.3995208740234375
-0.429718017578125,-0.1101226806640625,0.373199462890625
-0.3147125244140625,0.0090789794921875,0.3564453125
-0.122467041015625,0.0545501708984375,0.299285888671875
0.05389404296875,0.054443359375,0.23028564453125
0.1752166748046875,0.07342529296875,0.2040863037109375
0.206268310546875,0.04742431640625,0.12677001953125
0.1954498291015625,-0.030731201171875,0.088134765625
0.1978607177734375,-0.0237274169921875,0.0683135986328125
0.1532440185546875,-0.00982666015625,0.007080078125
0.1448516845703125,-0.0110626220703125,-0.019683837890625
0.1850433349609375,-0.0083465576171875,-0.0587310791015625
0.2656402587890625,0.024078369140625,-0.138153076171875
0.36114501953125,0.0301971435546875,-0.200958251953125
0.433685302734375,0.0446929931640625,-0.238037109375
0.4714508056640625,0.06243896484375,-0.2664031982421875
0.4653472900390625,0.0414581298828125,-0.2720947265625
0.42559814453125,0.0394439697265625,-0.2461090087890625
0.3938751220703125,0.0266571044921875,-0.22235107421875
0.378021240234375,-0.024688720703125,-0.1575469970703125
0.3793182373046875,-0.089202880859375,-0.075103759765625
0.3680877685546875,-0.1259307861328125,0.040313720703125
0.3689727783203125,-0.139007568359375,0.169525146484375
0.3543853759765625,-0.1004791259765625,0.2628173828125
0.2751007080078125,-0.0329437255859375,0.3777008056640625
0.18499755859375,-0.028961181640625,0.499664306640625
0.02227783203125,-0.0911865234375,0.6094970703125
-0.228851318359375,-0.13812255859375,0.7228240966796875
-0.4651641845703125,-0.21173095703125,0.840545654296875
-0.632781982421875,-0.242156982421875,0.98223876953125
-0.74273681640625,-0.235137939453125,1.1398468017578125
-0.88427734375,-0.2366790771484375,1.3058013916015625
-0.9847412109375,-0.20916748046875,1.466217041015625
-1.187347412109375,-0.2252655029296875,1.6280059814453125
-1.449188232421875,-0.2691650390625,1.74822998046875
-1.699005126953125,-0.3177642822265625,1.8459014892578125
-1.9514312744140625,-0.3458709716796875,1.9380035400390625
-2.1849212646484375,-0.412750244140625,1.9926910400390625
-2.3527069091796875,-0.477691650390625,1.980194091796875
-2.469512939453125,-0.58123779296875,1.9262237548828125
-2.463134765625,-0.608154296875,1.810699462890625
-2.4120941162109375,-0.654083251953125,1.639404296875
-2.3500213623046875,-0.754486083984375,1.444366455078125
-2.3117523193359375,-0.81475830078125,1.24163818359375
-2.2003631591796875,-0.8278350830078125,1.0821990966796875
-2.04998779296875,-0.814666748046875,0.9172515869140625
-1.916046142578125,-0.77984619140625,0.762725830078125
-1.73193359375,-0.719451904296875,0.6365203857421875
-1.4837799072265625,-0.6710968017578125,0.529876708984375
-1.304534912109375,-0.6366424560546875,0.4329681396484375
-1.1797027587890625,-0.630767822265625,0.3504180908203125
-1.0906219482421875,-0.6681671142578125,0.294342041015625
-1.035003662109375,-0.7034149169921875,0.2649078369140625
-0.9786224365234375,-0.7176971435546875,0.26397705078125
-0.958831787109375,-0.6408843994140625,0.2620849609375
-0.8698272705078125,-0.3990325927734375,0.23095703125
-0.6343841552734375,-0.2531890869140625,0.1751556396484375
-0.3808746337890625,0.04052734375,0.059173583984375
-0.1979217529296875,0.0466766357421875,-0.0540924072265625
-0.0048828125,-0.0532379150390625,-0.1489105224609375
0.1456146240234375,-0.0657958984375,-0.1511077880859375
0.2476348876953125,0.0344390869140625,-0.1548614501953125
0.3277740478515625,0.0778350830078125,-0.212432861328125
0.3744659423828125,0.0328826904296875,-0.2667999267578125
0.4223480224609375,0.0493011474609375,-0.330413818359375
0.489013671875,0.0581817626953125,-0.3983306884765625
0.5818328857421875,0.065887451171875,-0.419219970703125
0.6422882080078125,0.085845947265625,-0.4156036376953125
0.661712646484375,0.08502197265625,-0.3998260498046875
0.6523895263671875,0.0502471923828125,-0.3807220458984375
0.646148681640625,0.0110626220703125,-0.2664337158203125
0.6339569091796875,0.025115966796875,-0.18878173828125
0.6141204833984375,0.0211944580078125,-0.1087493896484375
0.578277587890625,0.0008697509765625,-0.0181732177734375
0.4992218017578125,0.0149688720703125,0.0234222412109375
0.4168548583984375,0.0306854248046875,0.0549774169921875
0.341156005859375,0.0841522216796875,0.092864990234375
0.2265777587890625,0.0009307861328125,0.2300872802734375
0.128631591796875,-0.06060791015625,0.3846893310546875
-0.079132080078125,-0.1274871826171875,0.461181640625
-0.3115386962890625,-0.142730712890625,0.626373291015625
-0.5687408447265625,-0.1234893798828125,0.7833709716796875
-0.7839508056640625,-0.20806884765625,0.99261474609375
-0.989837646484375,-0.265716552734375,1.1981353759765625
-1.167877197265625,-0.226898193359375,1.422882080078125
-1.321136474609375,-0.1980133056640625,1.6216583251953125
-1.4215850830078125,-0.2042083740234375,1.768707275390625
-1.5670166015625,-0.198974609375,1.8600616455078125
-1.786376953125,-0.2558746337890625,1.895416259765625
-2.001373291015625,-0.2832794189453125,1.9162445068359375
-2.2166290283203125,-0.352508544921875,1.9304046630859375
-2.378936767578125,-0.4282073974609375,1.8811492919921875
-2.5061187744140625,-0.5076446533203125,1.7808074951171875
-2.4976959228515625,-0.41143798828125,1.6675872802734375
-2.3858642578125,-0.3302154541015625,1.56268310546875
-2.30694580078125,-0.4069671630859375,1.45733642578125
-2.1493377685546875,-0.39398193359375,1.319976806640625
-1.9731597900390625,-0.3706512451171875,1.1556854248046875
-1.8156890869140625,-0.3443756103515625,0.965240478515625
-1.6590576171875,-0.355712890625,0.7941436767578125
-1.573516845703125,-0.3988494873046875,0.6385955810546875
-1.482879638671875,-0.429107666015625,0.522735595703125
-1.3929595947265625,-0.4765777587890625,0.4310150146484375
-1.357757568359375,-0.5307769775390625,0.2908782958984375
-1.31622314453125,-0.5343017578125,0.1951904296875
-1.1901092529296875,-0.4873809814453125,0.194122314453125
-1.0721282958984375,-0.377227783203125,0.2020721435546875
-0.928070068359375,-0.236480712890625,0.1339263916015625
-0.7390899658203125,-0.23858642578125,0.06561279296875
-0.5652008056640625,-0.18048095703125,0.0305328369140625
-0.4284210205078125,-0.1875457763671875,0.049591064453125
-0.3288116455078125,-0.261566162109375,0.0542755126953125
-0.2433929443359375,-0.2916107177734375,0.066986083984375
-0.1940460205078125,-0.2295379638671875,0.07861328125
-0.15338134765625,-0.135284423828125,0.0568084716796875
-0.07440185546875,-0.009918212890625,0.050872802734375
0.0788421630859375,0.0543975830078125,0.0526580810546875
0.216064453125,0.039825439453125,-0.001800537109375
0.334136962890625,0.050018310546875,-0.0423736572265625
0.458648681640625,0.0861358642578125,-0.0407562255859375
0.58941650390625,0.09808349609375,-0.063018798828125
0.6971282958984375,0.0993499755859375,-0.0766448974609375
0.786834716796875,0.0497589111328125,-0.048004150390625
0.8259124755859375,-0.0103759765625,-0.0279998779296875
0.847412109375,-0.0081787109375,0.027984619140625
0.85662841796875,-0.0067138671875,0.13262939453125
0.8507232666015625,0.0059051513671875,0.244903564453125
0.806243896484375,0.0338592529296875,0.2797393798828125
0.727752685546875,0.0767669677734375,0.2881927490234375
0.65240478515625,0.080718994140625,0.28515625
0.5757598876953125,0.0613250732421875,0.257904052734375
0.4488067626953125,0.054168701171875,0.219757080078125
0.3084869384765625,-0.005523681640625,0.238555908203125
0.2372589111328125,-0.08721923828125,0.2825927734375
0.120269775390625,-0.1682281494140625,0.34405517578125
0.007080078125,-0.200592041015625,0.43597412109375
-0.1107330322265625,-0.1676788330078125,0.4865875244140625
-0.222900390625,-0.102081298828125,0.53302001953125
-0.3703460693359375,-0.117156982421875,0.546478271484375
-0.613067626953125,-0.1841888427734375,0.553924560546875
-0.81103515625,-0.1932373046875,0.5927276611328125
-0.9073638916015625,-0.1445159912109375,0.651580810546875
-1.03759765625,-0.1505584716796875,0.712493896484375
-1.2475128173828125,-0.2817840576171875,0.7825164794921875
-1.5363922119140625,-0.437408447265625,0.8385009765625
-1.9383697509765625,-0.5193634033203125,0.9701690673828125
-2.3248291015625,-0.4788055419921875,1.0880126953125
-2.3248291015625,-0.4788055419921875,1.0880126953125
-2.5969085693359375,-0.445404052734375,1.1920623779296875
-2.8072662353515625,-0.4573211669921875,1.2558135986328125
-2.941009521484375,-0.4815826416015625,1.22308349609375
-3.000213623046875,-0.4990234375,1.1648406982421875
-2.893280029296875,-0.45947265625,1.0498504638671875
-2.7690582275390625,-0.5301971435546875,0.8403472900390625
-2.68670654296875,-0.5756378173828125,0.641998291015625
-2.54888916015625,-0.54718017578125,0.470306396484375
-2.4069976806640625,-0.48504638671875,0.295806884765625
-2.1721343994140625,-0.442413330078125,0.15362548828125
-1.5861358642578125,-0.2081451416015625,-0.1362762451171875
-1.218048095703125,-0.1928558349609375,-0.2481689453125
-1.218048095703125,-0.1928558349609375,-0.2481689453125
-0.655029296875,-0.2129058837890625,-0.5101318359375
-0.655029296875,-0.2129058837890625,-0.5101318359375
-0.274383544921875,-0.24346923828125,-0.6826629638671875
-0.274383544921875,-0.24346923828125,-0.6826629638671875
-0.16455078125,-0.29052734375,-0.7602081298828125
-0.0910186767578125,-0.336578369140625,-0.7783355712890625
-0.0515594482421875,-0.38201904296875,-0.7533721923828125
-0.039947509765625,-0.427886962890625,-0.6971893310546875
-0.085418701171875,-0.3924560546875,-0.610321044921875
-0.1207427978515625,-0.2318572998046875,-0.554656982421875
-0.107421875,-0.1070556640625,-0.631072998046875
-0.0513763427734375,-0.1515655517578125,-0.725677490234375
-0.0099029541015625,-0.2688751220703125,-0.6674041748046875
