Acceleration_X,Acceleration_Y,Acceleration_Z
-0.270041602,-0.679068701,-0.567877905
-0.292075293,-0.662253516,-0.539023535
-0.303046362,-0.646262305,-0.518485205
-0.303824561,-0.642096655,-0.501776831
-0.298194067,-0.633887427,-0.516440527
-0.289435522,-0.62401499,-0.529364722
-0.279868262,-0.614554541,-0.536276953
-0.270789282,-0.628790991,-0.556510107
-0.261603491,-0.621085303,-0.558219092
-0.265769141,-0.585883276,-0.53304209
-0.272986548,-0.572043555,-0.516684668
-0.277228491,-0.567572729,-0.510886328
-0.278891699,-0.583350317,-0.509558813
-0.276999609,-0.602988379,-0.511252539
-0.266104834,-0.594519751,-0.494925635
-0.263922827,-0.582968848,-0.474341528
-0.277503149,-0.591651099,-0.45542063
-0.271781104,-0.594443457,-0.432547705
-0.249610083,-0.602698462,-0.453467505
-0.239768164,-0.616904395,-0.48779978
-0.275153296,-0.609244482,-0.533469336
-0.345069067,-0.597983496,-0.58243479
-0.395148413,-0.598609106,-0.623877661
-0.427741187,-0.596778052,-0.647635596
-0.455847876,-0.621939795,-0.673026221
-0.480673926,-0.646231787,-0.695471899
-0.529395239,-0.64354624,-0.731986182
-0.626593726,-0.682135718,-0.767966406
-0.694541113,-0.722129004,-0.786109106
-0.778647559,-0.741767065,-0.789923804
-0.881934302,-0.734915869,-0.834464209
-1.002463477,-0.719473975,-0.899390356
-1.116309302,-0.686499731,-0.956961768
-1.143851416,-0.645301001,-1.002188818
-1.267203467,-0.63889231,-1.01564707
-1.407889502,-0.584967749,-1.011328833
-1.528998511,-0.553000586,-0.990668433
-1.639929907,-0.577597754,-0.94950022
-1.730979102,-0.571051733,-0.875373022
-1.774314063,-0.526496069,-0.830359595
-1.787421362,-0.420325415,-0.793845313
-1.80635752,-0.328787939,-0.766928809
-1.826743262,-0.241797583,-0.731391089
-1.86759104,-0.175543921,-0.699378149
-1.89997019,-0.125754492,-0.663031714
-1.917166846,-0.064246313,-0.607306616
-1.864615576,0.036568506,-0.555243628
-1.778357642,0.104622705,-0.492652075
-1.711753027,0.15723501,-0.447150366
-1.698218481,0.238243921,-0.412421362
-1.680152075,0.276146753,-0.35309519
-1.649710791,0.293434961,-0.32234873
-1.599356787,0.328621729,-0.266898291
-1.511603491,0.389641626,-0.179114478
-1.420035498,0.385872705,-0.167044775
-1.34717478,0.386299951,-0.123603003
-1.290488379,0.425896509,-0.088538306
-1.194419043,0.413765771,-0.059180396
-1.145285742,0.400063379,0.001274927
-1.114676611,0.36716543,0.031182153
-1.044806616,0.374535425,0.100945337
-0.995856421,0.382271631,0.145455225
-0.934851782,0.348061426,0.163460596
-0.868506567,0.348183496,0.180031641
-0.836783545,0.336327417,0.213524683
-0.78996958,0.322701318,0.254723413
-0.730902808,0.306725366,0.30289541
-0.690009253,0.306374414,0.357094629
-0.616782324,0.281655176,0.357750757
-0.557044165,0.282662256,0.402306421
-0.504996436,0.29055105,0.441201074
-0.438666479,0.285668237,0.44843374
-0.390769141,0.269326074,0.440850122
-0.34995188,0.224495752,0.455284937
-0.286399023,0.201409204,0.445839746
-0.223914282,0.165612085,0.436074121
-0.134543555,0.127190454,0.411248071
-0.030493872,0.087365015,0.381539209
0.072594507,0.056725366,0.359108789
0.187325342,0.031624658,0.345284326
0.274086816,0.005547388,0.334755762
0.342018945,0.005486353,0.324181421
0.38593374,0.007576807,0.324166162
0.401909692,0.004616602,0.303734644
0.409523828,0.003762109,0.288811548
0.425087793,-0.020178931,0.271035059
0.483132227,-0.079184668,0.225594385
0.528542383,-0.116767065,0.175911768
0.563362939,-0.148169653,0.145104272
0.593773706,-0.170294897,0.115563257
0.590004785,-0.170966284,0.101021631
0.584984644,-0.193549292,0.076653345
0.558174951,-0.191474097,0.036080225
0.495888574,-0.180167334,-0.014166968
0.393166406,-0.163916724,-0.079352515
0.283684595,-0.159613745,-0.096274512
0.209206445,-0.185782568,-0.094458716
0.133583887,-0.221488135,-0.094702856
0.046196802,-0.258017676,-0.038504736
-0.028662817,-0.299414771,-0.02031626
-0.093238013,-0.319388525,-0.022269385
-0.175040381,-0.331214087,-0.08406748
-0.270774023,-0.347312109,-0.153739111
-0.356635229,-0.384787695,-0.245703833
-0.46903147,-0.403800146,-0.297537939
-0.595633643,-0.393469946,-0.304236548
-0.695120947,-0.38208689,-0.307944434
-0.772772925,-0.408484595,-0.298514502
-0.807852881,-0.393271582,-0.26439585
-0.833426611,-0.413779395,-0.238379614
-0.869284766,-0.406134741,-0.24095835
-0.935279028,-0.426459448,-0.264746802
-1.059439795,-0.469077246,-0.285910742
-1.215949194,-0.374838965,-0.288413184
-1.324759619,-0.317008154,-0.299918311
-1.417777197,-0.248801367,-0.279364722
-1.440940039,-0.198691504,-0.207022803
-1.381812231,-0.213797705,-0.129660742
-1.276892798,-0.292288916,-0.077155249
-1.181967871,-0.427909033,-0.022162573
-1.209082739,-0.418265479,0.057595117
-1.307883398,-0.350821631,0.127266748
-1.428214209,-0.31832041,0.191719873
-1.556113379,-0.266577856,0.24796377
-1.660193579,-0.271857397,0.268029077
-1.744727271,-0.284842627,0.234383447
-1.813834326,-0.282981055,0.178414209
-1.813834326,-0.282981055,0.178414209
-1.896247046,-0.183798926,-0.004859106
-1.896247046,-0.183798926,-0.004859106
-1.930060522,-0.180686133,-0.077353613
-1.931906836,-0.227240698,-0.145758765
-1.906394141,-0.29576792,-0.234717505
-1.941626685,-0.31328501,-0.293616431
-1.981345313,-0.33495249,-0.341284888
-2.04790415,-0.366019385,-0.374747412
-2.133826392,-0.398139136,-0.371176855
-2.189749854,-0.440283911,-0.378638403
-2.201483862,-0.524253027,-0.414511816
-2.174994604,-0.562491553,-0.476737158
-2.120307104,-0.575232642,-0.619971411
-2.083274023,-0.561652319,-0.774314063
-2.034735815,-0.549430029,-0.937445776
-1.987815039,-0.520133154,-1.072409766
-1.900458472,-0.487906592,-1.195960181
-1.823477881,-0.446555273,-1.29349436
-1.745383398,-0.387427466,-1.356055396
-1.628668921,-0.368659155,-1.3877479
-1.524649756,-0.336737769,-1.3643104
-1.414694922,-0.291083472,-1.334097998
-1.292182104,-0.249976294,-1.28014292
-1.17391123,-0.208228247,-1.211524146
-1.053275244,-0.165488379,-1.12338938
-0.910193579,-0.134802954,-1.02561106
-0.755530493,-0.082785742,-0.925192969
-0.574851172,-0.043402808,-0.817053931
-0.375739233,-0.000983374,-0.693396704
-0.185065405,0.066643579,-0.554190771
-0.00052561,0.146920068,-0.380713599
0.173714502,0.219490869,-0.179328101
0.301232202,0.25728689,0.036660059
0.375756128,0.274575098,0.285332544
0.431954248,0.300133569,0.500542505
0.481758936,0.30591665,0.656685693
0.490868433,0.280449731,0.761391504
0.486275537,0.265511377,0.844109399
0.454369409,0.268196924,0.928719385
0.407784326,0.274346216,0.979042871
0.350548608,0.292824609,0.996620996
0.272942407,0.326805933,0.98548208
0.164727075,0.349190576,0.942833765
0.005349023,0.362313135,0.842232568
-0.168555396,0.326226099,0.726754053
-0.355795996,0.270729883,0.628182275
-0.531592505,0.232735498,0.576653345
-0.68651499,0.20171438,0.5338677
-0.846839087,0.199456079,0.514443262
-0.998541968,0.18987356,0.514183862
-1.162909644,0.16768728,0.548775537
-1.322699683,0.142433984,0.557228906
-1.442008154,0.097603662,0.513390405
-1.562293188,0.058953149,0.467064722
-1.665244238,-0.002204077,0.428139551
-1.754508154,-0.035330908,0.412163599
-1.879248755,-0.048697607,0.421547754
-1.985449927,-0.070624487,0.44150625
-2.081214087,-0.076743262,0.434670313
-2.176337378,-0.075263159,0.415245874
-2.233054297,-0.08003916,0.379799707
-2.267554419,-0.068350928,0.306481226
-2.287940161,-0.087241309,0.244088037
-2.304831641,-0.120261328,0.182991846
-2.340735571,-0.117743628,0.117882593
-2.373587744,-0.110007422,0.03336416
-2.378012793,-0.108832495,-0.061026709
-2.355124609,-0.119788306,-0.1536323
-2.336432593,-0.112082617,-0.264533179
-2.305808203,-0.11066355,-0.371985571
-2.25141062,-0.138434546,-0.448905127
-2.186545508,-0.153830664,-0.507468359
-2.123419897,-0.156561987,-0.548880713
-2.053519385,-0.15476145,-0.566641943
-1.963645117,-0.162039893,-0.568137305
-1.871924536,-0.16686167,-0.551734106
-1.778708594,-0.163291113,-0.538519995
-1.69307627,-0.167075293,-0.502982275
-1.605673926,-0.171012061,-0.456473486
-1.508429663,-0.18512644,-0.417533057
-1.427390234,-0.179618018,-0.352790015
-1.334937231,-0.168982642,-0.289115088
-1.236380713,-0.16686167,-0.219336646
-1.155158179,-0.147116797,-0.133978979
-1.057578223,-0.13762583,-0.067114966
-0.982230322,-0.130087988,0.01018606
-0.915869849,-0.125937598,0.073769434
-0.829840796,-0.133185522,0.118065698
-0.768942969,-0.120032446,0.163613184
-0.707190649,-0.093604224,0.188576563
-0.639456885,-0.109213965,0.213158472
-0.58432688,-0.088416235,0.240074976
-0.529975073,-0.080588477,0.247017725
-0.488471167,-0.073935645,0.270974023
-0.435111182,-0.056433813,0.266945703
-0.377402441,-0.052268164,0.279396875
-0.301764624,-0.046820776,0.277611597
-0.20088877,-0.058142798,0.266625269
-0.092597144,-0.070761816,0.252968652
0.052712305,-0.075812476,0.238442285
0.216805322,-0.057776587,0.222435815
0.413964136,-0.040961401,0.189354761
0.604836328,-0.009070532,0.156639917
0.783318384,0.021065576,0.113396509
0.946282251,0.059792383,0.086602075
1.10128103,0.056435449,0.023735864
1.241814478,0.027169092,-0.040518896
1.314766748,0.014351709,-0.082724707
1.355934961,-0.003089087,-0.096640723
1.350426538,-0.006507056,-0.094306128
1.289406641,0.016716821,-0.077994482
1.188073022,0.046151025,-0.035971777
1.074089868,0.044762476,0.027153833
0.908104761,0.050301416,0.098275049
0.683174951,0.049385889,0.187035425
0.445610864,0.04735647,0.262154443
0.17638479,0.037957056,0.319558008
-0.075369971,0.002800806,0.379494531
-0.287299292,-0.027503149,0.404015405
-0.449027197,-0.082846777,0.397194727
-0.567664282,-0.15123667,0.365029199
-0.671515601,-0.191001074,0.355980737
-0.764304297,-0.22759165,0.344597681
-0.839392798,-0.277442114,0.316048486
-0.925696509,-0.299033301,0.297112329
-1.001334326,-0.349036353,0.288857324
-1.070746558,-0.381400244,0.272423608
-1.153571265,-0.397101538,0.279976709
-1.227057593,-0.368048804,0.271996362
-1.297873633,-0.347190039,0.247444971
-1.345984595,-0.375159399,0.241875513
-1.374930518,-0.351554053,0.227089746
-1.385840552,-0.3542396,0.186318262
-1.369132178,-0.303107397,0.131386621
-1.367438452,-0.281943457,0.091484888
-1.408454077,-0.331915991,0.143441064
-1.442725317,-0.382880347,0.194222314
-1.478888647,-0.384070532,0.234185083
-1.513693945,-0.38333811,0.25211416
-1.510535376,-0.356177466,0.234627588
-1.504416602,-0.272727148,0.200264795
-1.487006323,-0.244849341,0.195931299
-1.47255625,-0.271674292,0.231789453
-1.444296973,-0.352881567,0.282219751
-1.420615332,-0.422019141,0.335747583
-1.419577734,-0.410819189,0.364937646
-1.429572241,-0.358435767,0.348275049
-1.437323706,-0.294318335,0.301293237
-1.417166846,-0.256690161,0.209603174
-1.410727637,-0.293845313,0.169899805
-1.411734717,-0.358908789,0.19138418
-1.414984839,-0.370917456,0.205193384
-1.442557471,-0.371787207,0.209175928
-1.493445532,-0.353263037,0.22754751
-1.541571753,-0.350119727,0.224037988
-1.600134985,-0.374671118,0.206566675
-1.660040991,-0.405219214,0.192589624
-1.706915991,-0.453742163,0.182122095
-1.761878149,-0.465460913,0.172127588
-1.804404395,-0.444724219,0.150688989
-1.82639231,-0.438742773,0.124703271
-1.835806982,-0.438574927,0.095192773
-1.840399878,-0.442084448,0.051049097
-1.846488135,-0.432959692,0.015190942
-1.834860938,-0.439719336,-0.010657446
-1.824896948,-0.434744971,-0.016471045
-1.80786814,-0.417517798,-0.000418799
-1.788565771,-0.378348486,0.012184961
-1.758353369,-0.358054297,0.02504812
-1.716666357,-0.348517554,0.033776147
-1.678839819,-0.344046729,0.040108545
-1.638846533,-0.31680979,0.03022085
-1.584464209,-0.300498145,0.011666162
-1.5233375,-0.269705908,-0.007575171
-1.454398291,-0.253348486,-0.022238867
-1.371924536,-0.233191626,-0.01514353
-1.269583838,-0.222602026,-0.006568091
-1.170416968,-0.203589575,0.007988794
-1.070792334,-0.185309546,0.026070459
-0.961905615,-0.174842017,0.04848562
-0.839148657,-0.181311743,0.057457788
-0.721488135,-0.178290503,0.054772241
-0.609671729,-0.169470923,0.050225122
-0.482199805,-0.156043188,0.027245386
-0.339285986,-0.127768652,0.019326074
-0.162970679,-0.097846167,0.01610647
0.029641016,-0.048834937,0.003792627
0.230919702,0.014397485,-0.017172949
0.41768728,0.082878931,-0.031516211
0.561806543,0.143807275,-0.03668894
0.674004419,0.166100366,-0.034308569
0.748619897,0.177666528,-0.004614966
0.789772852,0.167733057,0.024147852
0.788643701,0.14865957,0.061882837
0.75740896,0.112511499,0.117119653
0.715966089,0.079247339,0.159691675
0.644478662,0.058525903,0.207100732
0.525200708,0.032448633,0.25891958
0.386147363,0.017174585,0.304344995
0.204674585,0.004143579,0.344887598
-0.003653662,-0.006064551,0.370110376
-0.222861426,-0.023612158,0.396279199
-0.443839209,-0.070426123,0.418663843
-0.69420542,-0.083975928,0.439339502
-0.921057837,-0.111380713,0.456154688
-1.106238501,-0.13069834,0.477486475
-1.240149634,-0.154090063,0.48384939
-1.326331274,-0.199957983,0.50161062
-1.37691416,-0.225791113,0.510231836
-1.421469824,-0.245780127,0.488137109
-1.465155737,-0.304846899,0.46115957
-1.501700537,-0.373618262,0.439156396
-1.580649512,-0.407645361,0.438698633
-1.668311255,-0.424643652,0.444969995
-1.668311255,-0.424643652,0.444969995
-1.827445166,-0.453726904,0.490136011
-1.827445166,-0.453726904,0.490136011
-1.924842017,-0.48995127,0.496270044
-1.924842017,-0.48995127,0.496270044
-1.962775366,-0.511328833,0.467583521
-2.02245249,-0.512290137,0.407158716
-2.02245249,-0.512290137,0.407158716
-2.014121191,-0.502478735,0.303353174
-2.014121191,-0.502478735,0.303353174
-1.988135474,-0.499304907,0.24681936
-1.902030127,-0.526953833,0.147332056
-1.902030127,-0.526953833,0.147332056
-1.84982981,-0.530966895,0.102608545
-1.789771216,-0.527701514,0.054375513
-1.716590063,-0.525900977,0.014199121
-1.586493628,-0.517188208,-0.023703711
-1.586493628,-0.517188208,-0.023703711
-1.517844336,-0.516120093,-0.037741797
-1.444434302,-0.503852026,-0.04904856
-1.364554541,-0.480445044,-0.061255591
-1.281989233,-0.453101294,-0.071005957
-1.193869727,-0.419989722,-0.070532935
-1.100638525,-0.387076514,-0.055335181
-1.001074927,-0.356787817,-0.04816355
-0.906745093,-0.321250098,-0.041388647
-0.809012549,-0.290167944,-0.030234473
-0.704169409,-0.264121191,-0.020514624
-0.594901221,-0.238623755,-0.005087988
-0.482947485,-0.201544897,0.003167017
-0.371146338,-0.149527686,0.001091821
-0.242880957,-0.121420996,-0.006003516
-0.10448374,-0.103125708,-0.002234595
0.048317773,-0.101752417,0.001320703
0.177834375,-0.073966162,0.015633447
0.282433374,-0.023673193,0.055352075
0.393471582,-0.006919043,0.099160059
0.477272852,0.005608423,0.144204004
0.519783838,0.019875391,0.168419702
0.538964136,0.014748438,0.176400049
0.527809961,-0.000693457,0.193672998
0.498299463,-0.01930918,0.224114282
0.442726953,-0.053763525,0.24190603
0.355080469,-0.088400977,0.279641016
0.261345728,-0.104087012,0.330513818
0.139199121,-0.102530615,0.37056814
-0.008155005,-0.109076636,0.404045923
-0.164420264,-0.119055884,0.443322046
-0.336417334,-0.103415625,0.45121084
-0.516623633,-0.110236304,0.464272363
-0.672507422,-0.1455604,0.465782983
-0.825965063,-0.161475317,0.460396631
-0.983466284,-0.173071997,0.456459863
-1.117652075,-0.183280127,0.463829858
-1.239081519,-0.229331152,0.481407983
-1.364508765,-0.263205664,0.527199609
-1.486365454,-0.266364233,0.580056055
-1.6014625,-0.291693823,0.628945215
-1.709052222,-0.324881689,0.663674219
-1.824347632,-0.358512061,0.681328638
-1.931067603,-0.407233374,0.671700342
-2.019736426,-0.456671851,0.641213281
-2.094077246,-0.480612891,0.60935293
-2.170294897,-0.475897925,0.545601709
-2.226172583,-0.459220068,0.476937158
-2.235449927,-0.4505073,0.41579519
-2.234305518,-0.450080054,0.344399316
-2.224097388,-0.445197241,0.255761011
-2.21625437,-0.425070898,0.174950464
-2.193549292,-0.423499243,0.111382349
-2.154868262,-0.430838721,0.040642603
-2.084265845,-0.456442969,-0.015677588
-1.9895698,-0.476508276,-0.047583716
-1.876486914,-0.48200144,-0.071295874
-1.7627479,-0.472891943,-0.074072974
-1.644278662,-0.460486548,-0.093665259
-1.521353857,-0.456900732,-0.107855933
-1.405463354,-0.451422827,-0.119116919
-1.278647559,-0.457877295,-0.153494971
-1.164481299,-0.439856665,-0.18639292
-1.043204443,-0.413779395,-0.224356787
-0.913474219,-0.3933021,-0.261435645
-0.781485693,-0.368659155,-0.29891123
-0.645514624,-0.359992163,-0.340781348
-0.507971899,-0.352942603,-0.376624243
-0.384787695,-0.333518164,-0.403082983
-0.263205664,-0.301383154,-0.411902563
-0.127371924,-0.254981177,-0.401770728
-0.021994727,-0.195624487,-0.405387061
0.050515039,-0.126120703,-0.411231177
0.126305444,-0.056433813,-0.415763037
0.193825586,-0.008750098,-0.402152197
0.239144189,0.026375635,-0.376364844
0.278527124,0.025063379,-0.33092417
0.315758569,0.000664575,-0.237982886
0.343254907,-0.059668677,-0.11267771
0.347725732,-0.155280249,0.014778955
0.310845239,-0.205725806,0.151711328
0.214974268,-0.261252539,0.356896265
0.10985647,-0.266303198,0.518029077
-0.0051948,-0.213019507,0.617012842
-0.147483008,-0.11620249,0.687798364
-0.235739844,-0.060950415,0.724251611
-0.266867773,-0.031745093,0.715523584
-0.257163184,0.015084131,0.67626272
-0.210776465,0.045693262,0.589196069
-0.19698252,0.098809106,0.560112817
-0.185340063,0.141167505,0.525505884
-0.165793555,0.104164941,0.546929224
-0.189429419,0.123909814,0.608757837
-0.221686499,0.056893213,0.639244897
-0.274710791,0.000115259,0.662865503
-0.362479346,-0.035208838,0.700722559
-0.462317603,-0.131858008,0.709572656
-0.626105444,-0.162665503,0.780754907
-0.817465918,-0.232749121,0.852364404
-1.042151587,-0.280844824,0.969612939
-1.284705298,-0.307074683,1.060952051
-1.552603857,-0.325385229,1.088738306
-1.830725806,-0.354773657,1.0497521
-2.076666968,-0.419898169,0.984032495
-2.305869238,-0.465048926,0.878289087
-2.44029917,-0.487616675,0.803933008
-2.496970313,-0.467597144,0.73737417
-2.512656348,-0.504569189,0.652779443
-2.476218359,-0.528159277,0.53084646
-2.464713232,-0.549903052,0.372048242
-2.437140601,-0.580985205,0.217018945
-2.412985938,-0.609595435,0.053429468
-2.392935889,-0.635642188,-0.095358984
-2.352072852,-0.648856299,-0.188681738
-2.285758154,-0.638556616,-0.243659155
-2.193167822,-0.624655859,-0.274146216
-2.075812476,-0.62528147,-0.302939551
-1.955908911,-0.616797583,-0.3383552
-1.826499121,-0.615714209,-0.365897314
-1.696173804,-0.622138159,-0.366522925
-1.558707373,-0.609839575,-0.325980322
-1.406256812,-0.586539404,-0.284354346
-1.266791479,-0.52686228,-0.221839087
-1.12502207,-0.490256445,-0.148139136
-0.988516943,-0.456961768,-0.08722605
-0.878913062,-0.404547827,-0.011450903
-0.76312937,-0.356528418,0.057518823
-0.654364722,-0.328742163,0.139000757
-0.545706885,-0.293784277,0.243126733
-0.416205542,-0.27825083,0.365609033
-0.284140723,-0.248206274,0.473320825
-0.181586401,-0.187461035,0.573235376
-0.088202612,-0.130805151,0.672036035
-0.000632422,-0.085776465,0.704384668
0.068703516,-0.060782568,0.722115381
0.138604028,-0.041678564,0.713738306
0.197075708,-0.01590647,0.661110742
0.247429712,-0.002341406,0.572914941
0.294182642,0.023766382,0.476876123
0.328972681,0.049034937,0.362816675
0.354576929,0.071816309,0.227272852
0.369713647,0.099343164,0.101967676
0.395836694,0.104622705,-0.023535864
0.40975271,0.084343774,-0.155875342
0.40747915,0.052330835,-0.249930518
0.384514673,0.007012231,-0.275626318
0.355278833,-0.044989722,-0.261725562
0.301949365,-0.094794409,-0.216696875
0.234063013,-0.136420386,-0.142676489
0.14841543,-0.140570776,-0.06668772
0.05529104,-0.164542334,0.029015405
-0.037497656,-0.19180979,0.11628042
-0.162879126,-0.203467505,0.186425073
-0.317649023,-0.22809519,0.269844873
-0.448645728,-0.270789282,0.360283716
-0.582175391,-0.291678564,0.44893728
-0.692511694,-0.282019751,0.506111963
-0.801428931,-0.271460669,0.557137354
-0.929389136,-0.233664648,0.598687036
-1.058814185,-0.204245703,0.609566553
-1.156714575,-0.227500098,0.613686426
-1.264548438,-0.239417212,0.615929468
-1.334571021,-0.293006079,0.636360986
-1.365805762,-0.309989111,0.645439966
-1.405860083,-0.316290991,0.61400686
-1.441413062,-0.321051733,0.589348657
-1.476920264,-0.36670603,0.605477197
-1.535147803,-0.416892188,0.707527979
-1.614356177,-0.461783545,0.79685293
-1.688162939,-0.510413306,0.849068506
-1.777411597,-0.524680273,0.852959497
-1.839820044,-0.551093237,0.826638086
-1.889609473,-0.57701792,0.787896021
-1.930960791,-0.60687937,0.764504297
-1.955786841,-0.622397559,0.70801626
-2.000540869,-0.58420481,0.623680933
-2.051291602,-0.515875952,0.542076929
-2.086112158,-0.465827124,0.452507837
-2.129904883,-0.42227854,0.393715723
-2.140189307,-0.422812598,0.354134424
-2.15526499,-0.425620215,0.331887109
-2.125937598,-0.432517188,0.314095361
-2.062430518,-0.433859961,0.319435938
-1.994635718,-0.407080786,0.343834741
-1.905905859,-0.390982764,0.378044946
-1.827216284,-0.371207373,0.405266626
-1.761008398,-0.345435278,0.417855127
-1.691962378,-0.320609229,0.427101953
-1.622870581,-0.296027319,0.433800562
-1.537009375,-0.268668311,0.42801748
-1.449072974,-0.2395698,0.419243677
-1.361380713,-0.211936133,0.413613184
-1.262763159,-0.192908423,0.407570703
-1.155539648,-0.176840918,0.409386499
-1.055625098,-0.151999609,0.411812646
-0.963568823,-0.120642798,0.423119409
-0.881934302,-0.1014625,0.434456689
-0.807334082,-0.074607031,0.439324243
-0.749869482,-0.054984229,0.444710596
-0.68311228,-0.036704199,0.437844141
-0.591971533,-0.023261206,0.391579492
-0.591971533,-0.023261206,0.391579492
-0.338690894,0.005455835,0.266045435
-0.338690894,0.005455835,0.266045435
0.038430078,-0.012473242,0.19440542
0.038430078,-0.012473242,0.19440542
0.433495386,-0.010245459,0.081581934
0.433495386,-0.010245459,0.081581934
0.629570825,-0.003104346,0.046334131
0.797112329,0.007515771,-0.010092871
0.916420801,0.060295923,-0.04135813
0.995964868,0.096978052,-0.101538794
1.037224634,0.116707666,-0.161643164
1.03777395,0.121926172,-0.197837012
1.021355493,0.103859766,-0.209479468
0.987984521,0.084389551,-0.224997656
0.95108877,0.066201074,-0.219641821
0.912819727,0.043373926,-0.19823374
0.833428247,0.039955957,-0.167945044
0.722664697,0.029671533,-0.107016699
0.578484399,0.036278589,-0.019187109
0.40093313,0.04659353,0.084725244
0.174126489,0.044442041,0.191414697
-0.104804175,0.026879175,0.281624658
-0.391303198,-0.038672583,0.361824854
-0.680701392,-0.093131201,0.443856104
-0.914145605,-0.124945776,0.509178979
-1.089972632,-0.16458811,0.551415308
-1.215811865,-0.199896948,0.598214014
-1.276190894,-0.21045603,0.59952627
-1.348456519,-0.225928442,0.569481714
-1.437979834,-0.234000342,0.567330225
-1.516791479,-0.276557104,0.54143606
-1.6299354,-0.315726416,0.553597314
-1.743537085,-0.334754126,0.577538354
-1.801978247,-0.416968481,0.565209253
-1.868643896,-0.437964575,0.586800439
-1.896216528,-0.42896189,0.621331079
-1.908789771,-0.46701731,0.667275293
-1.928794043,-0.488455908,0.776970728
-1.946051733,-0.523352759,0.843087061
-1.980551855,-0.54047312,0.878548486
-2.038230078,-0.5389625,0.915902002
-2.080084937,-0.542090552,0.921196802
-2.115607397,-0.519202368,0.925865991
-2.104209082,-0.534888403,0.916420801
-2.065329688,-0.520743506,0.907616479
-2.013922827,-0.494635718,0.881295068
-1.937506812,-0.469641821,0.843422754
-1.858328955,-0.425208228,0.801110132
-1.779791968,-0.385428564,0.773125513
-1.695105688,-0.367667334,0.735527856
-1.624381201,-0.341467993,0.696343286
-1.567511694,-0.312689917,0.657616479
-1.496970313,-0.294104712,0.61930166
-1.418799536,-0.277320044,0.572716577
-1.33962168,-0.254019873,0.544915063
-1.262259619,-0.226813452,0.503075464
-1.182791846,-0.213370459,0.465096338
-1.103583472,-0.204566138,0.410836084
-1.021689551,-0.206885474,0.375939233
-0.935782568,-0.198538916,0.337151392
-0.831565039,-0.204993384,0.255333765
-0.725592749,-0.204367773,0.1538323
-0.599204199,-0.22595896,0.000145776
-0.45604624,-0.248862402,-0.185980933
-0.322913306,-0.244345801,-0.382620947
-0.200080054,-0.253379004,-0.584036963
-0.09175791,-0.269889014,-0.738898413
-0.007804053,-0.296805518,-0.856131689
0.057915552,-0.319800513,-0.928519385
0.098351343,-0.32311167,-0.976233618
0.147820337,-0.325308936,-0.977179663
0.202111108,-0.329978125,-0.95642771
0.260353906,-0.337332861,-0.918326514
0.307823999,-0.332541602,-0.845694678
0.352257593,-0.330100195,-0.767432349
0.373925073,-0.312110083,-0.655829565
0.362465723,-0.294791357,-0.545676367
0.321404321,-0.291144507,-0.42745127
0.259224756,-0.304602759,-0.310156958
0.168740137,-0.321478979,-0.185217993
0.058663232,-0.318946021,-0.069953101
-0.056510107,-0.307623999,0.036476953
-0.202277319,-0.293692725,0.149514063
-0.327963965,-0.28946604,0.2866448
-0.466529028,-0.275550024,0.441765649
-0.591620581,-0.249121802,0.565926416
-0.698279517,-0.246131079,0.660698755
-0.809943335,-0.218070166,0.756447656
-0.898322241,-0.203269141,0.838082178
-0.985709326,-0.227667944,0.916542871
-1.101157324,-0.233054297,0.992012842
-1.198767798,-0.251166479,1.052452905
-1.283591406,-0.260275977,1.115731104
-1.357230322,-0.231269019,1.154732568
-1.399207251,-0.214575903,1.160164697
-1.428336279,-0.1924354,1.154061182
-1.455359595,-0.183753149,1.152260645
-1.489005225,-0.177649634,1.164086206
-1.51200022,-0.158957617,1.171166284
-1.509772437,-0.145453589,1.176552637
-1.485022681,-0.134268896,1.168633325
-1.430335181,-0.113837378,1.133751733
-1.373999731,-0.070670264,1.073052271
-1.31568064,-0.043814795,0.99832998
-1.255652563,-0.053885596,0.896096094
-1.193213599,-0.07941355,0.780129297
-1.125159399,-0.109702246,0.661660059
-1.045111792,-0.148032324,0.541344507
-0.978263037,-0.175574438,0.423394067
-0.92970957,-0.215689795,0.265648706
-0.879279272,-0.29740061,0.080941064
-0.838416235,-0.389365332,-0.142111914
-0.820914404,-0.445517676,-0.393744604
-0.816214697,-0.4920875,-0.644141333
-0.825202124,-0.523566382,-0.780005591
-0.851004736,-0.548102515,-0.822974341
-0.891959326,-0.565238135,-0.802100317
-0.946036475,-0.591788428,-0.701483862
-1.009284155,-0.595603125,-0.543952124
-1.06819834,-0.603247778,-0.402564185
-1.138419287,-0.603278296,-0.275290625
-1.209021704,-0.60259165,-0.152701514
-1.271475928,-0.62528147,-0.046698706
-1.366690771,-0.610617773,0.115166528
-1.437811987,-0.600318091,0.249520166
-1.475379126,-0.609870093,0.332177026
-1.5077125,-0.621192114,0.360848291
-1.510794775,-0.633353369,0.347527368
-1.505118506,-0.65236582,0.286309106
-1.491324561,-0.657233374,0.23157583
-1.485983984,-0.623496191,0.173302515
-1.481528418,-0.594916479,0.123604639
-1.478552954,-0.550025122,0.081261499
-1.45189585,-0.519065039,0.037590845
-1.409232275,-0.506598608,0.004540308
-1.347617285,-0.499625342,-0.034857886
-1.274054663,-0.494635718,-0.071768896
-1.191245215,-0.471091406,-0.103140967
-1.103675024,-0.427893774,-0.148154395
-1.001685278,-0.359809058,-0.187720435
-0.881247656,-0.3151771,-0.23099436
-0.747046606,-0.280341284,-0.260687964
-0.597373145,-0.242240088,-0.247779028
-0.452613013,-0.194678442,-0.172461646
-0.316840308,-0.150702612,-0.084159033
-0.192710059,-0.110480444,0.034020288
-0.104972021,-0.061637061,0.182030542
-0.024558203,-0.003455298,0.328209741
0.040871484,0.035240991,0.448708398
0.095589502,0.047676904,0.570458276
0.133278711,0.065514429,0.724633081
0.152962549,0.051415308,0.910057886
0.129860742,0.048622949,1.069985254
0.104729517,0.054985864,1.17084585
0.066033228,0.05819021,1.235802515
0.037178857,0.053124292,1.249337061
0.000450952,0.070763452,1.226464136
-0.08193125,0.083947046,1.171608789
-0.217154639,0.09056936,1.102745874
-0.371237891,0.081230981,1.038628442
-0.542838232,0.057412012,0.96772085
-0.732978003,0.072914941,0.910775049
-0.898612158,0.103737695,0.878853662
-1.07903208,0.115837915,0.856301172
-1.269095557,0.093666895,0.833168848
-1.476721899,0.028603418,0.821587427
-1.695288794,-0.030356543,0.779915674
-1.928900854,-0.066367285,0.707848413
-2.144034521,-0.121146338,0.610527856
-2.303183691,-0.171515601,0.485146387
-2.399069922,-0.172186987,0.364052637
-2.469718115,-0.196250098,0.204308374
-2.498450415,-0.228400366,0.024010522
-2.472708838,-0.277991431,-0.155875342
-2.437094824,-0.314200537,-0.319052832
-2.397589819,-0.344123022,-0.487784521
-2.345252173,-0.369696753,-0.655493872
-2.280905859,-0.361441748,-0.777686255
-2.197196143,-0.370719092,-0.874716895
-2.080435889,-0.388358252,-0.961096899
-1.939704077,-0.377097266,-1.028388159
-1.774146216,-0.343222754,-1.068045752
-1.578009741,-0.327796118,-1.094260352
-1.373984473,-0.310980933,-1.093634741
-1.159186499,-0.295401709,-1.081015723
-0.939322607,-0.274375098,-1.04236521
-0.715705054,-0.26401438,-0.975852148
-0.503836768,-0.23125376,-0.903815405
-0.274924414,-0.186408179,-0.804862158
-0.043952124,-0.146079199,-0.706748145
0.149529321,-0.123694556,-0.627555029
0.286156519,-0.061667578,-0.527472632
0.383141382,0.009484155,-0.422736304
0.452141626,0.038079126,-0.28076853
0.510567529,0.029015405,-0.11507334
0.543358667,0.011406763,0.073983057
0.554833276,0.000511987,0.277214868
0.574059351,-0.026633398,0.469063623
0.586144312,-0.057898657,0.648735864
0.574242456,-0.058051245,0.778557642
0.556847437,-0.06983103,0.912804468
0.53022085,-0.094000952,1.037499292
0.469750269,-0.117880957,1.134514673
0.399056299,-0.16055979,1.217308862
0.341667993,-0.195532935,1.274788721
0.24631582,-0.182288306,1.302437646
0.133355005,-0.146369116,1.312386377
0.019722803,-0.123145239,1.300591333
-0.109854834,-0.102790015,1.29306875
-0.263556616,-0.066626685,1.322777612
-0.263556616,-0.066626685,1.322777612
-0.577658789,-0.025931494,1.406273706
-0.577658789,-0.025931494,1.406273706
-0.889548438,-0.016287939,1.44768606
-1.063925879,0.019280298,1.449074609
-1.063925879,0.019280298,1.449074609
-1.372855322,0.067421777,1.403481348
-1.372855322,0.067421777,1.403481348
-1.584967749,0.102364404,1.193611963
-1.584967749,0.102364404,1.193611963
-1.669623511,0.131768091,1.011452539
-1.74776377,0.16567312,0.823906763
-1.816443579,0.18155752,0.611626489
-1.870581763,0.170876367,0.390541895
-1.899741309,0.143593652,0.206597192
-1.913519995,0.140938623,0.052239282
-1.962668555,0.136910303,-0.126212256
-1.999320166,0.104698999,-0.263953345
-1.9714271,0.021599634,-0.366492407
-1.9164802,-0.08545603,-0.445227759
-1.837165015,-0.180853979,-0.51691355
-1.724127905,-0.265982764,-0.560462134
-1.57739939,-0.343390601,-0.597769873
-1.413352148,-0.41168894,-0.652960913
-1.259406226,-0.433219092,-0.67757334
-1.102027075,-0.435996191,-0.695120947
-0.954978125,-0.439429419,-0.746832983
-0.844641821,-0.391852515,-0.772055762
-0.75052561,-0.304907935,-0.800391333
-0.641211646,-0.205710547,-0.832755225
-0.539069312,-0.162619727,-0.876212256
-0.427527563,-0.176505225,-0.916815894
-0.31819834,-0.09415354,-0.963019507
