Acceleration_X,Acceleration_Y,Acceleration_Z
-0.2701416015625,-0.679168701171875,-0.5679779052734375
-0.29217529296875,-0.662353515625,-0.53912353515625
-0.3031463623046875,-0.6463623046875,-0.518585205078125
-0.303924560546875,-0.6421966552734375,-0.5018768310546875
-0.2982940673828125,-0.6339874267578125,-0.51654052734375
-0.2895355224609375,-0.624114990234375,-0.5294647216796875
-0.27996826171875,-0.614654541015625,-0.536376953125
-0.2708892822265625,-0.6288909912109375,-0.556610107421875
-0.2617034912109375,-0.621185302734375,-0.558319091796875
-0.265869140625,-0.5859832763671875,-0.53314208984375
-0.2730865478515625,-0.5721435546875,-0.51678466796875
-0.2773284912109375,-0.5676727294921875,-0.510986328125
-0.27899169921875,-0.5834503173828125,-0.5096588134765625
-0.277099609375,-0.60308837890625,-0.5113525390625
-0.266204833984375,-0.5946197509765625,-0.495025634765625
-0.2640228271484375,-0.58306884765625,-0.4744415283203125
-0.2776031494140625,-0.5917510986328125,-0.4555206298828125
-0.271881103515625,-0.59454345703125,-0.432647705078125
-0.2497100830078125,-0.6027984619140625,-0.4535675048828125
-0.2398681640625,-0.61700439453125,-0.4878997802734375
-0.2752532958984375,-0.609344482421875,-0.5335693359375
-0.3451690673828125,-0.59808349609375,-0.5825347900390625
-0.3952484130859375,-0.5987091064453125,-0.6239776611328125
-0.4278411865234375,-0.5968780517578125,-0.647735595703125
-0.4559478759765625,-0.622039794921875,-0.673126220703125
-0.48077392578125,-0.646331787109375,-0.6955718994140625
-0.5294952392578125,-0.643646240234375,-0.732086181640625
-0.6266937255859375,-0.6822357177734375,-0.76806640625
-0.69464111328125,-0.72222900390625,-0.7862091064453125
-0.77874755859375,-0.7418670654296875,-0.7900238037109375
-0.8820343017578125,-0.735015869140625,-0.834564208984375
-1.0025634765625,-0.719573974609375,-0.8994903564453125
-1.1164093017578125,-0.6865997314453125,-0.957061767578125
-1.143951416015625,-0.6454010009765625,-1.002288818359375
-1.267303466796875,-0.6389923095703125,-1.0157470703125
-1.407989501953125,-0.5850677490234375,-1.0114288330078125
-1.5290985107421875,-0.5531005859375,-0.9907684326171875
-1.6400299072265625,-0.57769775390625,-0.9496002197265625
-1.7310791015625,-0.5711517333984375,-0.8754730224609375
-1.7744140625,-0.5265960693359375,-0.8304595947265625
-1.7875213623046875,-0.4204254150390625,-0.7939453125
-1.80645751953125,-0.328887939453125,-0.76702880859375
-1.82684326171875,-0.2418975830078125,-0.7314910888671875
-1.8676910400390625,-0.1756439208984375,-0.6994781494140625
-1.9000701904296875,-0.1258544921875,-0.6631317138671875
-1.917266845703125,-0.0643463134765625,-0.6074066162109375
-1.864715576171875,0.036468505859375,-0.5553436279296875
-1.7784576416015625,0.104522705078125,-0.4927520751953125
-1.71185302734375,0.157135009765625,-0.4472503662109375
-1.6983184814453125,0.2381439208984375,-0.4125213623046875
-1.6802520751953125,0.2760467529296875,-0.3531951904296875
-1.649810791015625,0.2933349609375,-0.32244873046875
-1.599456787109375,0.328521728515625,-0.266998291015625
-1.5117034912109375,0.3895416259765625,-0.1792144775390625
-1.420135498046875,0.385772705078125,-0.167144775390625
-1.3472747802734375,0.386199951171875,-0.1237030029296875
-1.29058837890625,0.4257965087890625,-0.0886383056640625
-1.19451904296875,0.413665771484375,-0.0592803955078125
-1.1453857421875,0.39996337890625,0.0011749267578125
-1.114776611328125,0.3670654296875,0.0310821533203125
-1.0449066162109375,0.3744354248046875,0.1008453369140625
-0.9959564208984375,0.382171630859375,0.145355224609375
-0.9349517822265625,0.34796142578125,0.163360595703125
-0.8686065673828125,0.34808349609375,0.179931640625
-0.836883544921875,0.3362274169921875,0.2134246826171875
-0.790069580078125,0.322601318359375,0.2546234130859375
-0.7310028076171875,0.3066253662109375,0.30279541015625
-0.6901092529296875,0.3062744140625,0.35699462890625
-0.61688232421875,0.28155517578125,0.3576507568359375
-0.5571441650390625,0.282562255859375,0.4022064208984375
-0.505096435546875,0.2904510498046875,0.44110107421875
-0.4387664794921875,0.2855682373046875,0.448333740234375
-0.390869140625,0.26922607421875,0.4407501220703125
-0.3500518798828125,0.224395751953125,0.4551849365234375
-0.2864990234375,0.2013092041015625,0.44573974609375
-0.2240142822265625,0.1655120849609375,0.43597412109375
-0.1346435546875,0.1270904541015625,0.4111480712890625
-0.0305938720703125,0.0872650146484375,0.381439208984375
0.0724945068359375,0.0566253662109375,0.3590087890625
0.187225341796875,0.031524658203125,0.345184326171875
0.27398681640625,0.0054473876953125,0.33465576171875
0.3419189453125,0.0053863525390625,0.3240814208984375
0.385833740234375,0.007476806640625,0.324066162109375
0.4018096923828125,0.0045166015625,0.3036346435546875
0.409423828125,0.003662109375,0.2887115478515625
0.42498779296875,-0.0202789306640625,0.27093505859375
0.4830322265625,-0.07928466796875,0.225494384765625
0.5284423828125,-0.1168670654296875,0.175811767578125
0.563262939453125,-0.1482696533203125,0.1450042724609375
0.5936737060546875,-0.1703948974609375,0.1154632568359375
0.58990478515625,-0.1710662841796875,0.100921630859375
0.5848846435546875,-0.1936492919921875,0.0765533447265625
0.558074951171875,-0.1915740966796875,0.035980224609375
0.49578857421875,-0.180267333984375,-0.0142669677734375
0.39306640625,-0.1640167236328125,-0.0794525146484375
0.2835845947265625,-0.1597137451171875,-0.09637451171875
0.2091064453125,-0.185882568359375,-0.0945587158203125
0.13348388671875,-0.221588134765625,-0.0948028564453125
0.0460968017578125,-0.25811767578125,-0.038604736328125
-0.0287628173828125,-0.2995147705078125,-0.020416259765625
-0.0933380126953125,-0.319488525390625,-0.022369384765625
-0.175140380859375,-0.3313140869140625,-0.08416748046875
-0.2708740234375,-0.347412109375,-0.153839111328125
-0.3567352294921875,-0.3848876953125,-0.2458038330078125
-0.4691314697265625,-0.403900146484375,-0.297637939453125
-0.595733642578125,-0.3935699462890625,-0.3043365478515625
-0.695220947265625,-0.3821868896484375,-0.30804443359375
-0.7728729248046875,-0.4085845947265625,-0.298614501953125
-0.807952880859375,-0.39337158203125,-0.264495849609375
-0.833526611328125,-0.41387939453125,-0.2384796142578125
-0.869384765625,-0.4062347412109375,-0.241058349609375
-0.9353790283203125,-0.4265594482421875,-0.2648468017578125
-1.059539794921875,-0.46917724609375,-0.2860107421875
-1.2160491943359375,-0.37493896484375,-0.28851318359375
-1.324859619140625,-0.317108154296875,-0.300018310546875
-1.417877197265625,-0.2489013671875,-0.2794647216796875
-1.4410400390625,-0.19879150390625,-0.207122802734375
-1.3819122314453125,-0.213897705078125,-0.1297607421875
-1.2769927978515625,-0.292388916015625,-0.0772552490234375
-1.18206787109375,-0.428009033203125,-0.0222625732421875
-1.2091827392578125,-0.418365478515625,0.0574951171875
-1.3079833984375,-0.350921630859375,0.127166748046875
-1.428314208984375,-0.31842041015625,0.191619873046875
-1.55621337890625,-0.2666778564453125,0.24786376953125
-1.6602935791015625,-0.2719573974609375,0.2679290771484375
-1.7448272705078125,-0.284942626953125,0.234283447265625
-1.813934326171875,-0.2830810546875,0.178314208984375
-1.813934326171875,-0.2830810546875,0.178314208984375
-1.8963470458984375,-0.18389892578125,-0.0049591064453125
-1.8963470458984375,-0.18389892578125,-0.0049591064453125
-1.9301605224609375,-0.1807861328125,-0.07745361328125
-1.9320068359375,-0.2273406982421875,-0.1458587646484375
-1.906494140625,-0.295867919921875,-0.2348175048828125
-1.9417266845703125,-0.313385009765625,-0.2937164306640625
-1.9814453125,-0.335052490234375,-0.3413848876953125
-2.048004150390625,-0.366119384765625,-0.374847412109375
-2.1339263916015625,-0.3982391357421875,-0.37127685546875
-2.189849853515625,-0.4403839111328125,-0.3787384033203125
-2.2015838623046875,-0.52435302734375,-0.41461181640625
-2.1750946044921875,-0.562591552734375,-0.476837158203125
-2.1204071044921875,-0.5753326416015625,-0.6200714111328125
-2.0833740234375,-0.5617523193359375,-0.7744140625
-2.0348358154296875,-0.549530029296875,-0.9375457763671875
-1.9879150390625,-0.520233154296875,-1.072509765625
-1.9005584716796875,-0.488006591796875,-1.1960601806640625
-1.823577880859375,-0.4466552734375,-1.2935943603515625
-1.7454833984375,-0.3875274658203125,-1.3561553955078125
-1.6287689208984375,-0.3687591552734375,-1.387847900390625
-1.524749755859375,-0.3368377685546875,-1.364410400390625
-1.414794921875,-0.2911834716796875,-1.334197998046875
-1.2922821044921875,-0.2500762939453125,-1.280242919921875
-1.17401123046875,-0.2083282470703125,-1.2116241455078125
-1.053375244140625,-0.16558837890625,-1.1234893798828125
-0.9102935791015625,-0.1349029541015625,-1.0257110595703125
-0.7556304931640625,-0.0828857421875,-0.92529296875
-0.574951171875,-0.0435028076171875,-0.8171539306640625
-0.3758392333984375,-0.0010833740234375,-0.6934967041015625
-0.1851654052734375,0.0665435791015625,-0.554290771484375
-0.0006256103515625,0.146820068359375,-0.3808135986328125
0.173614501953125,0.219390869140625,-0.1794281005859375
0.3011322021484375,0.2571868896484375,0.03656005859375
0.3756561279296875,0.27447509765625,0.2852325439453125
0.431854248046875,0.3000335693359375,0.5004425048828125
0.481658935546875,0.305816650390625,0.656585693359375
0.4907684326171875,0.2803497314453125,0.76129150390625
0.486175537109375,0.265411376953125,0.8440093994140625
0.4542694091796875,0.268096923828125,0.928619384765625
0.407684326171875,0.2742462158203125,0.97894287109375
0.3504486083984375,0.292724609375,0.99652099609375
0.2728424072265625,0.3267059326171875,0.985382080078125
0.1646270751953125,0.349090576171875,0.9427337646484375
0.0052490234375,0.362213134765625,0.842132568359375
-0.1686553955078125,0.3261260986328125,0.726654052734375
-0.35589599609375,0.2706298828125,0.628082275390625
-0.5316925048828125,0.232635498046875,0.5765533447265625
-0.686614990234375,0.2016143798828125,0.5337677001953125
-0.8469390869140625,0.1993560791015625,0.51434326171875
-0.9986419677734375,0.1897735595703125,0.5140838623046875
-1.1630096435546875,0.1675872802734375,0.548675537109375
-1.3227996826171875,0.142333984375,0.55712890625
-1.442108154296875,0.097503662109375,0.5132904052734375
-1.5623931884765625,0.0588531494140625,0.4669647216796875
-1.66534423828125,-0.0023040771484375,0.42803955078125
-1.754608154296875,-0.035430908203125,0.4120635986328125
-1.8793487548828125,-0.048797607421875,0.42144775390625
-1.9855499267578125,-0.0707244873046875,0.44140625
-2.0813140869140625,-0.07684326171875,0.4345703125
-2.1764373779296875,-0.0753631591796875,0.4151458740234375
-2.233154296875,-0.08013916015625,0.37969970703125
-2.2676544189453125,-0.068450927734375,0.3063812255859375
-2.2880401611328125,-0.08734130859375,0.243988037109375
-2.304931640625,-0.120361328125,0.182891845703125
-2.3408355712890625,-0.1178436279296875,0.1177825927734375
-2.373687744140625,-0.110107421875,0.03326416015625
-2.37811279296875,-0.1089324951171875,-0.061126708984375
-2.355224609375,-0.1198883056640625,-0.1537322998046875
-2.3365325927734375,-0.1121826171875,-0.2646331787109375
-2.305908203125,-0.1107635498046875,-0.3720855712890625
-2.2515106201171875,-0.1385345458984375,-0.449005126953125
-2.1866455078125,-0.1539306640625,-0.507568359375
-2.1235198974609375,-0.1566619873046875,-0.548980712890625
-2.053619384765625,-0.1548614501953125,-0.566741943359375
-1.9637451171875,-0.162139892578125,-0.5682373046875
-1.8720245361328125,-0.166961669921875,-0.5518341064453125
-1.77880859375,-0.16339111328125,-0.5386199951171875
-1.69317626953125,-0.16717529296875,-0.503082275390625
-1.60577392578125,-0.171112060546875,-0.456573486328125
-1.5085296630859375,-0.1852264404296875,-0.417633056640625
-1.427490234375,-0.179718017578125,-0.3528900146484375
-1.3350372314453125,-0.1690826416015625,-0.289215087890625
-1.236480712890625,-0.166961669921875,-0.2194366455078125
-1.1552581787109375,-0.147216796875,-0.1340789794921875
-1.05767822265625,-0.137725830078125,-0.0672149658203125
-0.982330322265625,-0.13018798828125,0.0100860595703125
-0.9159698486328125,-0.12603759765625,0.07366943359375
-0.8299407958984375,-0.1332855224609375,0.1179656982421875
-0.76904296875,-0.1201324462890625,0.16351318359375
-0.7072906494140625,-0.0937042236328125,0.1884765625
-0.639556884765625,-0.10931396484375,0.2130584716796875
-0.5844268798828125,-0.0885162353515625,0.2399749755859375
-0.5300750732421875,-0.0806884765625,0.246917724609375
-0.4885711669921875,-0.07403564453125,0.2708740234375
-0.435211181640625,-0.0565338134765625,0.266845703125
-0.37750244140625,-0.0523681640625,0.279296875
-0.3018646240234375,-0.0469207763671875,0.2775115966796875
-0.20098876953125,-0.0582427978515625,0.2665252685546875
-0.0926971435546875,-0.07086181640625,0.25286865234375
0.0526123046875,-0.0759124755859375,0.23834228515625
0.216705322265625,-0.0578765869140625,0.2223358154296875
0.4138641357421875,-0.0410614013671875,0.1892547607421875
0.604736328125,-0.0091705322265625,0.1565399169921875
0.7832183837890625,0.020965576171875,0.1132965087890625
0.9461822509765625,0.0596923828125,0.0865020751953125
1.1011810302734375,0.05633544921875,0.0236358642578125
1.2417144775390625,0.027069091796875,-0.040618896484375
1.314666748046875,0.014251708984375,-0.08282470703125
1.3558349609375,-0.0031890869140625,-0.09674072265625
1.3503265380859375,-0.0066070556640625,-0.0944061279296875
1.289306640625,0.0166168212890625,-0.078094482421875
1.1879730224609375,0.046051025390625,-0.03607177734375
1.0739898681640625,0.0446624755859375,0.0270538330078125
0.9080047607421875,0.050201416015625,0.098175048828125
0.683074951171875,0.049285888671875,0.1869354248046875
0.4455108642578125,0.0472564697265625,0.262054443359375
0.1762847900390625,0.0378570556640625,0.3194580078125
-0.075469970703125,0.0027008056640625,0.37939453125
-0.2873992919921875,-0.0276031494140625,0.4039154052734375
-0.449127197265625,-0.08294677734375,0.3970947265625
-0.5677642822265625,-0.151336669921875,0.36492919921875
-0.6716156005859375,-0.19110107421875,0.3558807373046875
-0.764404296875,-0.227691650390625,0.3444976806640625
-0.8394927978515625,-0.2775421142578125,0.315948486328125
-0.9257965087890625,-0.29913330078125,0.2970123291015625
-1.001434326171875,-0.3491363525390625,0.28875732421875
-1.0708465576171875,-0.381500244140625,0.2723236083984375
-1.1536712646484375,-0.3972015380859375,0.279876708984375
-1.2271575927734375,-0.3681488037109375,0.2718963623046875
-1.2979736328125,-0.3472900390625,0.247344970703125
-1.3460845947265625,-0.3752593994140625,0.2417755126953125
-1.375030517578125,-0.351654052734375,0.22698974609375
-1.3859405517578125,-0.354339599609375,0.18621826171875
-1.369232177734375,-0.3032073974609375,0.13128662109375
-1.3675384521484375,-0.28204345703125,0.0913848876953125
-1.4085540771484375,-0.3320159912109375,0.143341064453125
-1.4428253173828125,-0.3829803466796875,0.194122314453125
-1.4789886474609375,-0.3841705322265625,0.2340850830078125
-1.5137939453125,-0.3834381103515625,0.25201416015625
-1.5106353759765625,-0.3562774658203125,0.234527587890625
-1.5045166015625,-0.2728271484375,0.200164794921875
-1.4871063232421875,-0.2449493408203125,0.195831298828125
-1.47265625,-0.2717742919921875,0.231689453125
-1.44439697265625,-0.3529815673828125,0.2821197509765625
-1.42071533203125,-0.422119140625,0.3356475830078125
-1.419677734375,-0.410919189453125,0.364837646484375
-1.4296722412109375,-0.3585357666015625,0.348175048828125
-1.4374237060546875,-0.2944183349609375,0.3011932373046875
-1.417266845703125,-0.2567901611328125,0.209503173828125
-1.41082763671875,-0.2939453125,0.1697998046875
-1.411834716796875,-0.3590087890625,0.1912841796875
-1.4150848388671875,-0.3710174560546875,0.2050933837890625
-1.442657470703125,-0.37188720703125,0.209075927734375
-1.4935455322265625,-0.353363037109375,0.227447509765625
-1.5416717529296875,-0.3502197265625,0.22393798828125
-1.6002349853515625,-0.3747711181640625,0.2064666748046875
-1.6601409912109375,-0.4053192138671875,0.1924896240234375
-1.7070159912109375,-0.4538421630859375,0.1820220947265625
-1.7619781494140625,-0.4655609130859375,0.172027587890625
-1.80450439453125,-0.44482421875,0.1505889892578125
-1.8264923095703125,-0.4388427734375,0.124603271484375
-1.835906982421875,-0.4386749267578125,0.0950927734375
-1.8404998779296875,-0.4421844482421875,0.0509490966796875
-1.846588134765625,-0.4330596923828125,0.0150909423828125
-1.8349609375,-0.4398193359375,-0.0107574462890625
-1.8249969482421875,-0.434844970703125,-0.016571044921875
-1.8079681396484375,-0.4176177978515625,-0.000518798828125
-1.788665771484375,-0.378448486328125,0.0120849609375
-1.758453369140625,-0.358154296875,0.0249481201171875
-1.716766357421875,-0.3486175537109375,0.0336761474609375
-1.6789398193359375,-0.344146728515625,0.040008544921875
-1.638946533203125,-0.3169097900390625,0.030120849609375
-1.584564208984375,-0.30059814453125,0.011566162109375
-1.5234375,-0.269805908203125,-0.0076751708984375
-1.454498291015625,-0.253448486328125,-0.0223388671875
-1.3720245361328125,-0.2332916259765625,-0.0152435302734375
-1.269683837890625,-0.2227020263671875,-0.0066680908203125
-1.1705169677734375,-0.2036895751953125,0.0078887939453125
-1.070892333984375,-0.1854095458984375,0.025970458984375
-0.962005615234375,-0.1749420166015625,0.0483856201171875
-0.8392486572265625,-0.1814117431640625,0.0573577880859375
-0.721588134765625,-0.1783905029296875,0.0546722412109375
-0.609771728515625,-0.1695709228515625,0.0501251220703125
-0.4822998046875,-0.1561431884765625,0.0271453857421875
-0.339385986328125,-0.12786865234375,0.01922607421875
-0.1630706787109375,-0.0979461669921875,0.0160064697265625
0.029541015625,-0.0489349365234375,0.003692626953125
0.2308197021484375,0.0142974853515625,-0.01727294921875
0.4175872802734375,0.0827789306640625,-0.0316162109375
0.56170654296875,0.143707275390625,-0.0367889404296875
0.6739044189453125,0.1660003662109375,-0.0344085693359375
0.7485198974609375,0.1775665283203125,-0.0047149658203125
0.7896728515625,0.167633056640625,0.0240478515625
0.788543701171875,0.1485595703125,0.0617828369140625
0.7573089599609375,0.1124114990234375,0.1170196533203125
0.7158660888671875,0.0791473388671875,0.1595916748046875
0.644378662109375,0.0584259033203125,0.207000732421875
0.5251007080078125,0.0323486328125,0.258819580078125
0.38604736328125,0.0170745849609375,0.3042449951171875
0.2045745849609375,0.0040435791015625,0.34478759765625
-0.003753662109375,-0.00616455078125,0.3700103759765625
-0.22296142578125,-0.023712158203125,0.39617919921875
-0.443939208984375,-0.070526123046875,0.4185638427734375
-0.694305419921875,-0.084075927734375,0.439239501953125
-0.9211578369140625,-0.111480712890625,0.4560546875
-1.1063385009765625,-0.13079833984375,0.477386474609375
-1.2402496337890625,-0.1541900634765625,0.4837493896484375
-1.3264312744140625,-0.2000579833984375,0.5015106201171875
-1.37701416015625,-0.22589111328125,0.5101318359375
-1.42156982421875,-0.245880126953125,0.488037109375
-1.4652557373046875,-0.3049468994140625,0.4610595703125
-1.501800537109375,-0.37371826171875,0.439056396484375
-1.58074951171875,-0.407745361328125,0.4385986328125
-1.6684112548828125,-0.42474365234375,0.4448699951171875
-1.6684112548828125,-0.42474365234375,0.4448699951171875
-1.827545166015625,-0.453826904296875,0.4900360107421875
-1.827545166015625,-0.453826904296875,0.4900360107421875
-1.9249420166015625,-0.49005126953125,0.4961700439453125
-1.9249420166015625,-0.49005126953125,0.4961700439453125
-1.9628753662109375,-0.5114288330078125,0.4674835205078125
-2.022552490234375,-0.51239013671875,0.4070587158203125
-2.022552490234375,-0.51239013671875,0.4070587158203125
-2.01422119140625,-0.5025787353515625,0.303253173828125
-2.01422119140625,-0.5025787353515625,0.303253173828125
-1.9882354736328125,-0.4994049072265625,0.2467193603515625
-1.902130126953125,-0.5270538330078125,0.1472320556640625
-1.902130126953125,-0.5270538330078125,0.1472320556640625
-1.8499298095703125,-0.53106689453125,0.102508544921875
-1.7898712158203125,-0.527801513671875,0.0542755126953125
-1.7166900634765625,-0.5260009765625,0.01409912109375
-1.5865936279296875,-0.5172882080078125,-0.0238037109375
-1.5865936279296875,-0.5172882080078125,-0.0238037109375
-1.5179443359375,-0.5162200927734375,-0.037841796875
-1.4445343017578125,-0.5039520263671875,-0.0491485595703125
-1.364654541015625,-0.4805450439453125,-0.0613555908203125
-1.2820892333984375,-0.4532012939453125,-0.07110595703125
-1.1939697265625,-0.4200897216796875,-0.0706329345703125
-1.100738525390625,-0.387176513671875,-0.0554351806640625
-1.0011749267578125,-0.3568878173828125,-0.0482635498046875
-0.9068450927734375,-0.32135009765625,-0.0414886474609375
-0.809112548828125,-0.2902679443359375,-0.03033447265625
-0.7042694091796875,-0.26422119140625,-0.0206146240234375
-0.595001220703125,-0.2387237548828125,-0.00518798828125
-0.4830474853515625,-0.2016448974609375,0.0030670166015625
-0.371246337890625,-0.149627685546875,0.0009918212890625
-0.24298095703125,-0.12152099609375,-0.006103515625
-0.104583740234375,-0.1032257080078125,-0.0023345947265625
0.0482177734375,-0.1018524169921875,0.001220703125
0.177734375,-0.074066162109375,0.015533447265625
0.2823333740234375,-0.023773193359375,0.0552520751953125
0.39337158203125,-0.00701904296875,0.09906005859375
0.4771728515625,0.0055084228515625,0.14410400390625
0.519683837890625,0.019775390625,0.1683197021484375
0.5388641357421875,0.0146484375,0.176300048828125
0.5277099609375,-0.00079345703125,0.193572998046875
0.498199462890625,-0.0194091796875,0.2240142822265625
0.442626953125,-0.053863525390625,0.2418060302734375
0.35498046875,-0.0885009765625,0.279541015625
0.2612457275390625,-0.10418701171875,0.330413818359375
0.13909912109375,-0.102630615234375,0.3704681396484375
-0.0082550048828125,-0.1091766357421875,0.4039459228515625
-0.164520263671875,-0.1191558837890625,0.4432220458984375
-0.336517333984375,-0.103515625,0.45111083984375
-0.5167236328125,-0.1103363037109375,0.46417236328125
-0.672607421875,-0.145660400390625,0.4656829833984375
-0.8260650634765625,-0.1615753173828125,0.460296630859375
-0.9835662841796875,-0.1731719970703125,0.45635986328125
-1.1177520751953125,-0.183380126953125,0.4637298583984375
-1.2391815185546875,-0.22943115234375,0.4813079833984375
-1.3646087646484375,-0.2633056640625,0.527099609375
-1.4864654541015625,-0.2664642333984375,0.5799560546875
-1.6015625,-0.2917938232421875,0.62884521484375
-1.7091522216796875,-0.324981689453125,0.66357421875
-1.8244476318359375,-0.358612060546875,0.6812286376953125
-1.9311676025390625,-0.4073333740234375,0.671600341796875
-2.01983642578125,-0.4567718505859375,0.64111328125
-2.09417724609375,-0.480712890625,0.6092529296875
-2.1703948974609375,-0.4759979248046875,0.545501708984375
-2.2262725830078125,-0.459320068359375,0.476837158203125
-2.2355499267578125,-0.4506072998046875,0.4156951904296875
-2.234405517578125,-0.4501800537109375,0.34429931640625
-2.2241973876953125,-0.4452972412109375,0.2556610107421875
-2.2163543701171875,-0.4251708984375,0.1748504638671875
-2.1936492919921875,-0.4235992431640625,0.1112823486328125
-2.15496826171875,-0.430938720703125,0.0405426025390625
-2.0843658447265625,-0.45654296875,-0.015777587890625
-1.9896697998046875,-0.4766082763671875,-0.0476837158203125
-1.8765869140625,-0.4821014404296875,-0.0713958740234375
-1.762847900390625,-0.472991943359375,-0.0741729736328125
-1.644378662109375,-0.4605865478515625,-0.0937652587890625
-1.521453857421875,-0.457000732421875,-0.1079559326171875
-1.4055633544921875,-0.4515228271484375,-0.1192169189453125
-1.27874755859375,-0.457977294921875,-0.153594970703125
-1.164581298828125,-0.4399566650390625,-0.186492919921875
-1.043304443359375,-0.41387939453125,-0.224456787109375
-0.91357421875,-0.393402099609375,-0.26153564453125
-0.781585693359375,-0.3687591552734375,-0.29901123046875
-0.6456146240234375,-0.3600921630859375,-0.34088134765625
-0.5080718994140625,-0.3530426025390625,-0.3767242431640625
-0.3848876953125,-0.3336181640625,-0.4031829833984375
-0.2633056640625,-0.301483154296875,-0.4120025634765625
-0.127471923828125,-0.2550811767578125,-0.4018707275390625
-0.0220947265625,-0.1957244873046875,-0.405487060546875
0.0504150390625,-0.126220703125,-0.4113311767578125
0.1262054443359375,-0.0565338134765625,-0.415863037109375
0.1937255859375,-0.00885009765625,-0.402252197265625
0.239044189453125,0.026275634765625,-0.37646484375
0.2784271240234375,0.02496337890625,-0.331024169921875
0.3156585693359375,0.0005645751953125,-0.2380828857421875
0.3431549072265625,-0.0597686767578125,-0.1127777099609375
0.347625732421875,-0.1553802490234375,0.014678955078125
0.3107452392578125,-0.2058258056640625,0.151611328125
0.214874267578125,-0.2613525390625,0.3567962646484375
0.1097564697265625,-0.2664031982421875,0.5179290771484375
-0.0052947998046875,-0.2131195068359375,0.616912841796875
-0.1475830078125,-0.116302490234375,0.6876983642578125
-0.23583984375,-0.0610504150390625,0.724151611328125
-0.2669677734375,-0.0318450927734375,0.715423583984375
-0.25726318359375,0.014984130859375,0.6761627197265625
-0.21087646484375,0.04559326171875,0.5890960693359375
-0.19708251953125,0.0987091064453125,0.5600128173828125
-0.1854400634765625,0.1410675048828125,0.5254058837890625
-0.1658935546875,0.10406494140625,0.5468292236328125
-0.1895294189453125,0.123809814453125,0.6086578369140625
-0.2217864990234375,0.056793212890625,0.6391448974609375
-0.274810791015625,1.52587890625e-05,0.6627655029296875
-0.362579345703125,-0.035308837890625,0.70062255859375
-0.4624176025390625,-0.1319580078125,0.70947265625
-0.6262054443359375,-0.1627655029296875,0.7806549072265625
-0.81756591796875,-0.23284912109375,0.852264404296875
-1.0422515869140625,-0.28094482421875,0.969512939453125
-1.2848052978515625,-0.3071746826171875,1.06085205078125
-1.552703857421875,-0.3254852294921875,1.0886383056640625
-1.8308258056640625,-0.3548736572265625,1.049652099609375
-2.0767669677734375,-0.4199981689453125,0.9839324951171875
-2.30596923828125,-0.46514892578125,0.8781890869140625
-2.440399169921875,-0.4877166748046875,0.8038330078125
-2.4970703125,-0.4676971435546875,0.737274169921875
-2.51275634765625,-0.504669189453125,0.652679443359375
-2.476318359375,-0.52825927734375,0.5307464599609375
-2.464813232421875,-0.5500030517578125,0.3719482421875
-2.4372406005859375,-0.581085205078125,0.2169189453125
-2.4130859375,-0.6096954345703125,0.0533294677734375
-2.393035888671875,-0.6357421875,-0.095458984375
-2.3521728515625,-0.648956298828125,-0.18878173828125
-2.285858154296875,-0.6386566162109375,-0.2437591552734375
-2.193267822265625,-0.624755859375,-0.2742462158203125
-2.0759124755859375,-0.6253814697265625,-0.30303955078125
-1.9560089111328125,-0.6168975830078125,-0.3384552001953125
-1.82659912109375,-0.615814208984375,-0.365997314453125
-1.6962738037109375,-0.6222381591796875,-0.3666229248046875
-1.558807373046875,-0.6099395751953125,-0.326080322265625
-1.4063568115234375,-0.586639404296875,-0.284454345703125
-1.2668914794921875,-0.5269622802734375,-0.2219390869140625
-1.1251220703125,-0.4903564453125,-0.1482391357421875
-0.988616943359375,-0.457061767578125,-0.0873260498046875
-0.8790130615234375,-0.4046478271484375,-0.0115509033203125
-0.7632293701171875,-0.35662841796875,0.0574188232421875
-0.6544647216796875,-0.3288421630859375,0.1389007568359375
-0.545806884765625,-0.29388427734375,0.2430267333984375
-0.4163055419921875,-0.278350830078125,0.365509033203125
-0.28424072265625,-0.2483062744140625,0.4732208251953125
-0.1816864013671875,-0.18756103515625,0.5731353759765625
-0.0883026123046875,-0.1309051513671875,0.67193603515625
-0.000732421875,-0.08587646484375,0.70428466796875
0.068603515625,-0.060882568359375,0.722015380859375
0.1385040283203125,-0.041778564453125,0.7136383056640625
0.1969757080078125,-0.0160064697265625,0.6610107421875
0.2473297119140625,-0.00244140625,0.57281494140625
0.2940826416015625,0.0236663818359375,0.476776123046875
0.3288726806640625,0.0489349365234375,0.3627166748046875
0.3544769287109375,0.07171630859375,0.2271728515625
0.3696136474609375,0.0992431640625,0.10186767578125
0.3957366943359375,0.104522705078125,-0.0236358642578125
0.4096527099609375,0.0842437744140625,-0.155975341796875
0.407379150390625,0.0522308349609375,-0.250030517578125
0.3844146728515625,0.0069122314453125,-0.275726318359375
0.3551788330078125,-0.0450897216796875,-0.2618255615234375
0.301849365234375,-0.0948944091796875,-0.216796875
0.2339630126953125,-0.1365203857421875,-0.1427764892578125
0.1483154296875,-0.1406707763671875,-0.0667877197265625
0.0551910400390625,-0.164642333984375,0.0289154052734375
-0.03759765625,-0.1919097900390625,0.116180419921875
-0.1629791259765625,-0.2035675048828125,0.1863250732421875
-0.3177490234375,-0.2281951904296875,0.269744873046875
-0.4487457275390625,-0.2708892822265625,0.3601837158203125
-0.582275390625,-0.291778564453125,0.4488372802734375
-0.6926116943359375,-0.2821197509765625,0.506011962890625
-0.8015289306640625,-0.2715606689453125,0.557037353515625
-0.9294891357421875,-0.2337646484375,0.5985870361328125
-1.0589141845703125,-0.204345703125,0.609466552734375
-1.1568145751953125,-0.22760009765625,0.61358642578125
-1.2646484375,-0.2395172119140625,0.6158294677734375
-1.3346710205078125,-0.2931060791015625,0.636260986328125
-1.36590576171875,-0.310089111328125,0.6453399658203125
-1.4059600830078125,-0.3163909912109375,0.6139068603515625
-1.4415130615234375,-0.3211517333984375,0.5892486572265625
-1.477020263671875,-0.3668060302734375,0.605377197265625
-1.535247802734375,-0.4169921875,0.707427978515625
-1.6144561767578125,-0.461883544921875,0.7967529296875
-1.688262939453125,-0.5105133056640625,0.848968505859375
-1.7775115966796875,-0.5247802734375,0.8528594970703125
-1.8399200439453125,-0.5511932373046875,0.8265380859375
-1.88970947265625,-0.577117919921875,0.7877960205078125
-1.931060791015625,-0.6069793701171875,0.764404296875
-1.9558868408203125,-0.62249755859375,0.707916259765625
-2.000640869140625,-0.5843048095703125,0.6235809326171875
-2.0513916015625,-0.5159759521484375,0.5419769287109375
-2.086212158203125,-0.4659271240234375,0.4524078369140625
-2.1300048828125,-0.4223785400390625,0.39361572265625
-2.140289306640625,-0.42291259765625,0.354034423828125
-2.155364990234375,-0.42572021484375,0.331787109375
-2.12603759765625,-0.4326171875,0.313995361328125
-2.062530517578125,-0.4339599609375,0.3193359375
-1.9947357177734375,-0.4071807861328125,0.3437347412109375
-1.906005859375,-0.391082763671875,0.3779449462890625
-1.8273162841796875,-0.371307373046875,0.4051666259765625
-1.7611083984375,-0.3455352783203125,0.417755126953125
-1.6920623779296875,-0.320709228515625,0.427001953125
-1.6229705810546875,-0.2961273193359375,0.4337005615234375
-1.537109375,-0.268768310546875,0.42791748046875
-1.4491729736328125,-0.2396697998046875,0.4191436767578125
-1.361480712890625,-0.2120361328125,0.41351318359375
-1.2628631591796875,-0.1930084228515625,0.407470703125
-1.1556396484375,-0.17694091796875,0.4092864990234375
-1.05572509765625,-0.152099609375,0.411712646484375
-0.9636688232421875,-0.1207427978515625,0.4230194091796875
-0.8820343017578125,-0.1015625,0.434356689453125
-0.80743408203125,-0.07470703125,0.4392242431640625
-0.749969482421875,-0.055084228515625,0.444610595703125
-0.6832122802734375,-0.03680419921875,0.437744140625
-0.592071533203125,-0.0233612060546875,0.3914794921875
-0.592071533203125,-0.0233612060546875,0.3914794921875
-0.3387908935546875,0.0053558349609375,0.2659454345703125
-0.3387908935546875,0.0053558349609375,0.2659454345703125
0.038330078125,-0.0125732421875,0.194305419921875
0.038330078125,-0.0125732421875,0.194305419921875
0.4333953857421875,-0.010345458984375,0.08148193359375
0.4333953857421875,-0.010345458984375,0.08148193359375
0.6294708251953125,-0.003204345703125,0.046234130859375
0.7970123291015625,0.007415771484375,-0.01019287109375
0.91632080078125,0.0601959228515625,-0.0414581298828125
0.9958648681640625,0.0968780517578125,-0.1016387939453125
1.0371246337890625,0.116607666015625,-0.1617431640625
1.0376739501953125,0.121826171875,-0.19793701171875
1.0212554931640625,0.103759765625,-0.2095794677734375
0.987884521484375,0.08428955078125,-0.22509765625
0.95098876953125,0.06610107421875,-0.2197418212890625
0.9127197265625,0.04327392578125,-0.198333740234375
0.8333282470703125,0.03985595703125,-0.1680450439453125
0.722564697265625,0.029571533203125,-0.10711669921875
0.5783843994140625,0.0361785888671875,-0.019287109375
0.4008331298828125,0.0464935302734375,0.084625244140625
0.1740264892578125,0.044342041015625,0.191314697265625
-0.1049041748046875,0.0267791748046875,0.281524658203125
-0.3914031982421875,-0.0387725830078125,0.361724853515625
-0.6808013916015625,-0.093231201171875,0.443756103515625
-0.91424560546875,-0.1250457763671875,0.5090789794921875
-1.0900726318359375,-0.1646881103515625,0.5513153076171875
-1.215911865234375,-0.1999969482421875,0.598114013671875
-1.2762908935546875,-0.2105560302734375,0.59942626953125
-1.3485565185546875,-0.2260284423828125,0.5693817138671875
-1.438079833984375,-0.234100341796875,0.567230224609375
-1.5168914794921875,-0.2766571044921875,0.5413360595703125
-1.630035400390625,-0.315826416015625,0.553497314453125
-1.7436370849609375,-0.3348541259765625,0.5774383544921875
-1.8020782470703125,-0.4170684814453125,0.5651092529296875
-1.868743896484375,-0.4380645751953125,0.586700439453125
-1.8963165283203125,-0.4290618896484375,0.6212310791015625
-1.9088897705078125,-0.4671173095703125,0.66717529296875
-1.92889404296875,-0.488555908203125,0.7768707275390625
-1.9461517333984375,-0.5234527587890625,0.842987060546875
-1.98065185546875,-0.5405731201171875,0.878448486328125
-2.038330078125,-0.5390625,0.915802001953125
-2.0801849365234375,-0.5421905517578125,0.9210968017578125
-2.1157073974609375,-0.5193023681640625,0.9257659912109375
-2.10430908203125,-0.5349884033203125,0.91632080078125
-2.0654296875,-0.520843505859375,0.9075164794921875
-2.0140228271484375,-0.4947357177734375,0.881195068359375
-1.9376068115234375,-0.4697418212890625,0.84332275390625
-1.858428955078125,-0.4253082275390625,0.8010101318359375
-1.7798919677734375,-0.385528564453125,0.7730255126953125
-1.6952056884765625,-0.367767333984375,0.7354278564453125
-1.624481201171875,-0.3415679931640625,0.6962432861328125
-1.5676116943359375,-0.3127899169921875,0.6575164794921875
-1.4970703125,-0.2942047119140625,0.61920166015625
-1.4188995361328125,-0.2774200439453125,0.5726165771484375
-1.3397216796875,-0.254119873046875,0.5448150634765625
-1.262359619140625,-0.2269134521484375,0.5029754638671875
-1.182891845703125,-0.213470458984375,0.464996337890625
-1.1036834716796875,-0.2046661376953125,0.410736083984375
-1.02178955078125,-0.2069854736328125,0.3758392333984375
-0.935882568359375,-0.198638916015625,0.3370513916015625
-0.8316650390625,-0.2050933837890625,0.2552337646484375
-0.7256927490234375,-0.2044677734375,0.1537322998046875
-0.59930419921875,-0.2260589599609375,4.57763671875e-05
-0.456146240234375,-0.24896240234375,-0.1860809326171875
-0.3230133056640625,-0.24444580078125,-0.382720947265625
-0.2001800537109375,-0.25347900390625,-0.584136962890625
-0.09185791015625,-0.269989013671875,-0.7389984130859375
-0.007904052734375,-0.296905517578125,-0.856231689453125
0.0578155517578125,-0.3199005126953125,-0.928619384765625
0.0982513427734375,-0.323211669921875,-0.9763336181640625
0.1477203369140625,-0.325408935546875,-0.9772796630859375
0.2020111083984375,-0.330078125,-0.9565277099609375
0.26025390625,-0.337432861328125,-0.918426513671875
0.3077239990234375,-0.3326416015625,-0.845794677734375
0.3521575927734375,-0.3302001953125,-0.7675323486328125
0.3738250732421875,-0.3122100830078125,-0.6559295654296875
0.36236572265625,-0.294891357421875,-0.5457763671875
0.3213043212890625,-0.2912445068359375,-0.42755126953125
0.259124755859375,-0.3047027587890625,-0.3102569580078125
0.16864013671875,-0.3215789794921875,-0.1853179931640625
0.058563232421875,-0.3190460205078125,-0.0700531005859375
-0.056610107421875,-0.3077239990234375,0.036376953125
-0.2023773193359375,-0.293792724609375,0.1494140625
-0.32806396484375,-0.2895660400390625,0.2865447998046875
-0.4666290283203125,-0.2756500244140625,0.4416656494140625
-0.5917205810546875,-0.2492218017578125,0.565826416015625
-0.6983795166015625,-0.2462310791015625,0.6605987548828125
-0.8100433349609375,-0.218170166015625,0.75634765625
-0.8984222412109375,-0.203369140625,0.837982177734375
-0.985809326171875,-0.2277679443359375,0.91644287109375
-1.10125732421875,-0.233154296875,0.991912841796875
-1.1988677978515625,-0.2512664794921875,1.0523529052734375
-1.28369140625,-0.2603759765625,1.115631103515625
-1.357330322265625,-0.2313690185546875,1.154632568359375
-1.3993072509765625,-0.2146759033203125,1.160064697265625
-1.428436279296875,-0.192535400390625,1.153961181640625
-1.4554595947265625,-0.1838531494140625,1.15216064453125
-1.489105224609375,-0.1777496337890625,1.1639862060546875
-1.5121002197265625,-0.1590576171875,1.1710662841796875
-1.5098724365234375,-0.1455535888671875,1.17645263671875
-1.4851226806640625,-0.134368896484375,1.1685333251953125
-1.4304351806640625,-0.1139373779296875,1.1336517333984375
-1.3740997314453125,-0.070770263671875,1.0729522705078125
-1.3157806396484375,-0.043914794921875,0.99822998046875
-1.2557525634765625,-0.053985595703125,0.89599609375
-1.1933135986328125,-0.0795135498046875,0.780029296875
-1.1252593994140625,-0.10980224609375,0.66156005859375
-1.0452117919921875,-0.14813232421875,0.5412445068359375
-0.978363037109375,-0.1756744384765625,0.4232940673828125
-0.9298095703125,-0.215789794921875,0.2655487060546875
-0.8793792724609375,-0.2975006103515625,0.080841064453125
-0.8385162353515625,-0.38946533203125,-0.1422119140625
-0.821014404296875,-0.44561767578125,-0.3938446044921875
-0.816314697265625,-0.4921875,-0.6442413330078125
-0.8253021240234375,-0.5236663818359375,-0.7801055908203125
-0.851104736328125,-0.5482025146484375,-0.8230743408203125
-0.892059326171875,-0.565338134765625,-0.8022003173828125
-0.946136474609375,-0.591888427734375,-0.7015838623046875
-1.0093841552734375,-0.595703125,-0.5440521240234375
-1.06829833984375,-0.6033477783203125,-0.4026641845703125
-1.138519287109375,-0.6033782958984375,-0.275390625
-1.2091217041015625,-0.602691650390625,-0.152801513671875
-1.271575927734375,-0.6253814697265625,-0.0467987060546875
-1.366790771484375,-0.6107177734375,0.1150665283203125
-1.4379119873046875,-0.6004180908203125,0.249420166015625
-1.4754791259765625,-0.6099700927734375,0.3320770263671875
-1.5078125,-0.6212921142578125,0.360748291015625
-1.510894775390625,-0.633453369140625,0.3474273681640625
-1.505218505859375,-0.6524658203125,0.2862091064453125
-1.491424560546875,-0.6573333740234375,0.231475830078125
-1.486083984375,-0.62359619140625,0.1732025146484375
-1.48162841796875,-0.5950164794921875,0.123504638671875
-1.4786529541015625,-0.5501251220703125,0.0811614990234375
-1.451995849609375,-0.5191650390625,0.0374908447265625
-1.409332275390625,-0.5066986083984375,0.0044403076171875
-1.34771728515625,-0.499725341796875,-0.0349578857421875
-1.2741546630859375,-0.4947357177734375,-0.071868896484375
-1.19134521484375,-0.47119140625,-0.103240966796875
-1.1037750244140625,-0.4279937744140625,-0.14825439453125
-1.0017852783203125,-0.3599090576171875,-0.1878204345703125
-0.88134765625,-0.315277099609375,-0.2310943603515625
-0.7471466064453125,-0.2804412841796875,-0.2607879638671875
-0.59747314453125,-0.242340087890625,-0.2478790283203125
-0.4527130126953125,-0.1947784423828125,-0.1725616455078125
-0.3169403076171875,-0.1508026123046875,-0.084259033203125
-0.19281005859375,-0.1105804443359375,0.0339202880859375
-0.105072021484375,-0.061737060546875,0.1819305419921875
-0.024658203125,-0.0035552978515625,0.3281097412109375
0.040771484375,0.0351409912109375,0.4486083984375
0.095489501953125,0.047576904296875,0.5703582763671875
0.1331787109375,0.0654144287109375,0.7245330810546875
0.152862548828125,0.0513153076171875,0.9099578857421875
0.1297607421875,0.04852294921875,1.06988525390625
0.1046295166015625,0.0548858642578125,1.170745849609375
0.0659332275390625,0.0580902099609375,1.2357025146484375
0.037078857421875,0.0530242919921875,1.249237060546875
0.0003509521484375,0.0706634521484375,1.2263641357421875
-0.08203125,0.0838470458984375,1.1715087890625
-0.217254638671875,0.0904693603515625,1.1026458740234375
-0.371337890625,0.0811309814453125,1.0385284423828125
-0.542938232421875,0.05731201171875,0.967620849609375
-0.7330780029296875,0.07281494140625,0.910675048828125
-0.898712158203125,0.1036376953125,0.878753662109375
-1.079132080078125,0.1157379150390625,0.856201171875
-1.269195556640625,0.09356689453125,0.83306884765625
-1.4768218994140625,0.02850341796875,0.8214874267578125
-1.6953887939453125,-0.03045654296875,0.779815673828125
-1.9290008544921875,-0.06646728515625,0.7077484130859375
-2.144134521484375,-0.121246337890625,0.6104278564453125
-2.30328369140625,-0.1716156005859375,0.48504638671875
-2.399169921875,-0.1722869873046875,0.36395263671875
-2.469818115234375,-0.19635009765625,0.2042083740234375
-2.4985504150390625,-0.2285003662109375,0.0239105224609375
-2.472808837890625,-0.2780914306640625,-0.155975341796875
-2.43719482421875,-0.314300537109375,-0.31915283203125
-2.3976898193359375,-0.3442230224609375,-0.487884521484375
-2.3453521728515625,-0.3697967529296875,-0.6555938720703125
-2.281005859375,-0.361541748046875,-0.7777862548828125
-2.197296142578125,-0.370819091796875,-0.87481689453125
-2.080535888671875,-0.388458251953125,-0.9611968994140625
-1.9398040771484375,-0.377197265625,-1.0284881591796875
-1.7742462158203125,-0.34332275390625,-1.068145751953125
-1.5781097412109375,-0.3278961181640625,-1.0943603515625
-1.37408447265625,-0.3110809326171875,-1.0937347412109375
-1.1592864990234375,-0.295501708984375,-1.08111572265625
-0.939422607421875,-0.27447509765625,-1.0424652099609375
-0.7158050537109375,-0.2641143798828125,-0.9759521484375
-0.503936767578125,-0.231353759765625,-0.9039154052734375
-0.2750244140625,-0.1865081787109375,-0.804962158203125
-0.0440521240234375,-0.14617919921875,-0.70684814453125
0.1494293212890625,-0.1237945556640625,-0.627655029296875
0.2860565185546875,-0.061767578125,-0.5275726318359375
0.3830413818359375,0.0093841552734375,-0.4228363037109375
0.4520416259765625,0.0379791259765625,-0.2808685302734375
0.510467529296875,0.0289154052734375,-0.11517333984375
0.5432586669921875,0.0113067626953125,0.073883056640625
0.5547332763671875,0.0004119873046875,0.2771148681640625
0.5739593505859375,-0.0267333984375,0.468963623046875
0.5860443115234375,-0.0579986572265625,0.6486358642578125
0.5741424560546875,-0.0581512451171875,0.7784576416015625
0.5567474365234375,-0.0699310302734375,0.9127044677734375
0.530120849609375,-0.0941009521484375,1.0373992919921875
0.4696502685546875,-0.11798095703125,1.1344146728515625
0.398956298828125,-0.1606597900390625,1.2172088623046875
0.3415679931640625,-0.1956329345703125,1.274688720703125
0.2462158203125,-0.1823883056640625,1.302337646484375
0.1332550048828125,-0.1464691162109375,1.312286376953125
0.019622802734375,-0.1232452392578125,1.3004913330078125
-0.109954833984375,-0.1028900146484375,1.29296875
-0.2636566162109375,-0.0667266845703125,1.3226776123046875
-0.2636566162109375,-0.0667266845703125,1.3226776123046875
-0.5777587890625,-0.026031494140625,1.4061737060546875
-0.5777587890625,-0.026031494140625,1.4061737060546875
-0.8896484375,-0.016387939453125,1.4475860595703125
-1.06402587890625,0.0191802978515625,1.448974609375
-1.06402587890625,0.0191802978515625,1.448974609375
-1.372955322265625,0.06732177734375,1.40338134765625
-1.372955322265625,0.06732177734375,1.40338134765625
-1.5850677490234375,0.102264404296875,1.193511962890625
-1.5850677490234375,0.102264404296875,1.193511962890625
-1.6697235107421875,0.1316680908203125,1.0113525390625
-1.74786376953125,0.1655731201171875,0.8238067626953125
-1.8165435791015625,0.18145751953125,0.6115264892578125
-1.8706817626953125,0.1707763671875,0.39044189453125
-1.89984130859375,0.14349365234375,0.2064971923828125
-1.9136199951171875,0.140838623046875,0.0521392822265625
-1.9627685546875,0.136810302734375,-0.126312255859375
-1.999420166015625,0.1045989990234375,-0.2640533447265625
-1.971527099609375,0.0214996337890625,-0.3665924072265625
-1.9165802001953125,-0.0855560302734375,-0.4453277587890625
-1.8372650146484375,-0.1809539794921875,-0.5170135498046875
-1.7242279052734375,-0.266082763671875,-0.5605621337890625
-1.5774993896484375,-0.3434906005859375,-0.597869873046875
-1.4134521484375,-0.4117889404296875,-0.6530609130859375
-1.2595062255859375,-0.433319091796875,-0.67767333984375
-1.1021270751953125,-0.43609619140625,-0.695220947265625
-0.955078125,-0.4395294189453125,-0.7469329833984375
-0.8447418212890625,-0.3919525146484375,-0.77215576171875
-0.7506256103515625,-0.3050079345703125,-0.8004913330078125
-0.6413116455078125,-0.205810546875,-0.832855224609375
-0.5391693115234375,-0.1627197265625,-0.876312255859375
-0.4276275634765625,-0.176605224609375,-0.9169158935546875
-0.31829833984375,-0.0942535400390625,-0.9631195068359375
