Acceleration_X,Acceleration_Y,Acceleration_Z
-0.048828125,-0.6883087158203125,-0.6074371337890625
-0.0468597412109375,-0.6802978515625,-0.595489501953125
-0.0505218505859375,-0.6613311767578125,-0.5935516357421875
-0.0600738525390625,-0.6512908935546875,-0.6063079833984375
-0.0580291748046875,-0.6348419189453125,-0.60577392578125
-0.0588531494140625,-0.6220245361328125,-0.613067626953125
-0.0575103759765625,-0.623779296875,-0.6178436279296875
-0.0598297119140625,-0.6157684326171875,-0.613739013671875
-0.056549072265625,-0.611083984375,-0.600250244140625
-0.052032470703125,-0.6182708740234375,-0.5873565673828125
-0.04986572265625,-0.6174163818359375,-0.5687103271484375
-0.0616455078125,-0.619415283203125,-0.5500946044921875
-0.0723114013671875,-0.627471923828125,-0.5280303955078125
-0.0778656005859375,-0.6298980712890625,-0.5032501220703125
-0.0858917236328125,-0.6342010498046875,-0.49859619140625
-0.0887908935546875,-0.6316680908203125,-0.4987030029296875
-0.101837158203125,-0.6302490234375,-0.5063629150390625
-0.1161956787109375,-0.628173828125,-0.527313232421875
-0.1289215087890625,-0.638275146484375,-0.533721923828125
-0.13275146484375,-0.65313720703125,-0.5364990234375
-0.1438751220703125,-0.6490020751953125,-0.53546142578125
-0.158111572265625,-0.6413116455078125,-0.532318115234375
-0.1661224365234375,-0.641265869140625,-0.53265380859375
-0.176849365234375,-0.64495849609375,-0.5301971435546875
-0.18927001953125,-0.652069091796875,-0.5674896240234375
-0.1942138671875,-0.6538543701171875,-0.6073150634765625
-0.21185302734375,-0.659271240234375,-0.6264801025390625
-0.2324371337890625,-0.6790771484375,-0.6329345703125
-0.24957275390625,-0.696746826171875,-0.62432861328125
-0.281280517578125,-0.7030487060546875,-0.602081298828125
-0.3492431640625,-0.717010498046875,-0.587249755859375
-0.4187164306640625,-0.7316741943359375,-0.5921478271484375
-0.50732421875,-0.7035675048828125,-0.60858154296875
-0.58953857421875,-0.6852569580078125,-0.637939453125
-0.650299072265625,-0.701080322265625,-0.6568145751953125
-0.682891845703125,-0.7159881591796875,-0.669525146484375
-0.7035980224609375,-0.7173309326171875,-0.6805572509765625
-0.746124267578125,-0.7055206298828125,-0.7158203125
-0.82666015625,-0.6840972900390625,-0.76043701171875
-0.910980224609375,-0.7218780517578125,-0.81988525390625
-1.0199127197265625,-0.7165985107421875,-0.856719970703125
-1.112884521484375,-0.728485107421875,-0.868682861328125
-1.2221221923828125,-0.719573974609375,-0.8890380859375
-1.3210906982421875,-0.7064971923828125,-0.91796875
-1.4114227294921875,-0.6740875244140625,-0.9408111572265625
-1.5150909423828125,-0.63104248046875,-0.9343719482421875
-1.60943603515625,-0.587432861328125,-0.914337158203125
-1.671478271484375,-0.51544189453125,-0.895172119140625
-1.792236328125,-0.4156341552734375,-0.8731842041015625
-1.9300537109375,-0.3448028564453125,-0.847808837890625
-1.9965667724609375,-0.20965576171875,-0.8126220703125
-2.0180206298828125,-0.0548095703125,-0.7828826904296875
-2.0156402587890625,0.0123748779296875,-0.7654876708984375
-1.97979736328125,0.071136474609375,-0.7091827392578125
-1.92138671875,0.2008514404296875,-0.6307525634765625
-1.8977203369140625,0.25067138671875,-0.619781494140625
-1.9019622802734375,0.2963714599609375,-0.494964599609375
-1.8929290771484375,0.3135528564453125,-0.44134521484375
-1.88031005859375,0.3608856201171875,-0.345245361328125
-1.8406524658203125,0.366943359375,-0.29486083984375
-1.7956390380859375,0.3826446533203125,-0.2543182373046875
-1.7568817138671875,0.4172821044921875,-0.1972503662109375
-1.6931610107421875,0.46514892578125,-0.1314849853515625
-1.5865325927734375,0.475311279296875,-0.08978271484375
-1.4844970703125,0.4843597412109375,-0.06707763671875
-1.354156494140625,0.51654052734375,-0.0519866943359375
-1.211151123046875,0.4904022216796875,-0.039886474609375
-1.094879150390625,0.46820068359375,-0.0572967529296875
-1.0091094970703125,0.478057861328125,-0.0516357421875
-0.9274749755859375,0.432281494140625,-0.0698394775390625
-0.8890228271484375,0.4201812744140625,-0.0640869140625
-0.809906005859375,0.4226531982421875,-0.02001953125
-0.7200164794921875,0.3871917724609375,0.0148162841796875
-0.6114959716796875,0.37548828125,0.0576171875
-0.53173828125,0.3495330810546875,0.1050262451171875
-0.4822998046875,0.3329315185546875,0.15155029296875
-0.4460601806640625,0.27691650390625,0.2010040283203125
-0.4004974365234375,0.2545318603515625,0.2547607421875
-0.3586273193359375,0.200592041015625,0.30572509765625
-0.3160400390625,0.2004547119140625,0.3625335693359375
-0.277587890625,0.1859283447265625,0.399200439453125
-0.235198974609375,0.1753997802734375,0.4500274658203125
-0.1646270751953125,0.1498565673828125,0.494720458984375
-0.0846710205078125,0.14312744140625,0.533782958984375
-0.0105438232421875,0.127838134765625,0.5589141845703125
0.0474090576171875,0.103179931640625,0.5579376220703125
0.122833251953125,0.0809783935546875,0.5611419677734375
0.191253662109375,0.060791015625,0.5384521484375
0.259735107421875,0.0489654541015625,0.5146026611328125
0.31658935546875,0.0377197265625,0.498382568359375
0.3638763427734375,0.0226287841796875,0.461456298828125
0.3686370849609375,0.0334320068359375,0.41754150390625
0.376068115234375,0.0240478515625,0.3880157470703125
0.4047393798828125,0.0068511962890625,0.365753173828125
0.421478271484375,0.0120086669921875,0.3084259033203125
0.462249755859375,0.0062103271484375,0.23089599609375
0.524688720703125,-0.0096435546875,0.1294708251953125
0.5919647216796875,-0.0084686279296875,0.031982421875
0.6256561279296875,-0.01959228515625,-0.0815887451171875
0.61322021484375,-0.0227508544921875,-0.1934051513671875
0.5646209716796875,-0.021087646484375,-0.29193115234375
0.4974212646484375,-0.0489654541015625,-0.3565216064453125
0.4023284912109375,-0.1015777587890625,-0.400787353515625
0.2747802734375,-0.1524505615234375,-0.394287109375
0.150787353515625,-0.2220611572265625,-0.356414794921875
-0.0224761962890625,-0.2516937255859375,-0.3097076416015625
-0.18365478515625,-0.3197479248046875,-0.2369537353515625
-0.341094970703125,-0.3560028076171875,-0.1756591796875
-0.5020599365234375,-0.3665924072265625,-0.1376495361328125
-0.639617919921875,-0.38671875,-0.126739501953125
-0.7380218505859375,-0.407257080078125,-0.1207122802734375
-0.81927490234375,-0.354705810546875,-0.1380767822265625
-0.8555450439453125,-0.34490966796875,-0.1599884033203125
-0.885711669921875,-0.3959808349609375,-0.1804962158203125
-0.934814453125,-0.3661041259765625,-0.2019805908203125
-1.0078125,-0.3847503662109375,-0.19866943359375
-1.0697479248046875,-0.3698272705078125,-0.1820831298828125
-1.1071929931640625,-0.34393310546875,-0.181365966796875
-1.1606292724609375,-0.3377532958984375,-0.18511962890625
-1.2383880615234375,-0.289642333984375,-0.168701171875
-1.2747039794921875,-0.367523193359375,-0.16229248046875
-1.33856201171875,-0.397064208984375,-0.1636810302734375
-1.4186248779296875,-0.376190185546875,-0.177886962890625
-1.4940948486328125,-0.3654022216796875,-0.1738128662109375
-1.555389404296875,-0.2974700927734375,-0.1399078369140625
-1.59027099609375,-0.2593536376953125,-0.0863189697265625
-1.6247100830078125,-0.236663818359375,-0.01416015625
-1.61895751953125,-0.2671051025390625,0.0598907470703125
-1.637176513671875,-0.2975006103515625,0.088409423828125
-1.6636810302734375,-0.3172607421875,0.091461181640625
-1.6636810302734375,-0.3172607421875,0.091461181640625
-1.7773284912109375,-0.3695068359375,0.05718994140625
-1.8934173583984375,-0.4073028564453125,0.06146240234375
-2.0004119873046875,-0.41571044921875,0.0720977783203125
-2.05438232421875,-0.4639739990234375,0.0655975341796875
-2.05438232421875,-0.4639739990234375,0.0655975341796875
-2.152496337890625,-0.5487213134765625,0.0234222412109375
-2.18878173828125,-0.5980072021484375,-0.0215301513671875
-2.18878173828125,-0.5980072021484375,-0.0215301513671875
-2.2205963134765625,-0.603424072265625,-0.1634979248046875
-2.1923370361328125,-0.6058349609375,-0.2783966064453125
-2.1389007568359375,-0.6281585693359375,-0.399993896484375
-2.0861358642578125,-0.6247711181640625,-0.5219573974609375
-2.0505828857421875,-0.6037750244140625,-0.629669189453125
-2.013336181640625,-0.59747314453125,-0.70794677734375
-2.013336181640625,-0.59747314453125,-0.70794677734375
-1.909210205078125,-0.54278564453125,-0.8166046142578125
-1.909210205078125,-0.54278564453125,-0.8166046142578125
-1.7342376708984375,-0.491485595703125,-0.914337158203125
-1.622314453125,-0.4752655029296875,-0.92547607421875
-1.622314453125,-0.4752655029296875,-0.92547607421875
-1.497467041015625,-0.4307861328125,-0.9129791259765625
-1.3626251220703125,-0.390045166015625,-0.88433837890625
-1.221771240234375,-0.3455810546875,-0.83251953125
-1.0697784423828125,-0.319183349609375,-0.7544403076171875
-0.91436767578125,-0.300323486328125,-0.687103271484375
-0.7816925048828125,-0.2673187255859375,-0.6460113525390625
-0.6614990234375,-0.2321319580078125,-0.6096954345703125
-0.55096435546875,-0.2029571533203125,-0.58233642578125
-0.4429779052734375,-0.16253662109375,-0.5401611328125
-0.3423309326171875,-0.11224365234375,-0.49114990234375
-0.2466583251953125,-0.0511322021484375,-0.44189453125
-0.1396484375,0.0109710693359375,-0.3968353271484375
-0.00592041015625,0.067962646484375,-0.344451904296875
0.1490631103515625,0.1163482666015625,-0.2934112548828125
0.300018310546875,0.1736297607421875,-0.2166595458984375
0.39825439453125,0.219970703125,-0.1473236083984375
0.45513916015625,0.2591400146484375,-0.057830810546875
0.489776611328125,0.26361083984375,0.07965087890625
0.4742584228515625,0.2794189453125,0.22015380859375
0.423675537109375,0.2751312255859375,0.3683319091796875
0.3601837158203125,0.2601318359375,0.515289306640625
0.2686767578125,0.256805419921875,0.6227874755859375
0.1863555908203125,0.2237548828125,0.696685791015625
0.0963287353515625,0.199371337890625,0.743621826171875
0.028350830078125,0.14776611328125,0.7923736572265625
-0.0640716552734375,0.151214599609375,0.8454742431640625
-0.1661224365234375,0.16827392578125,0.8643798828125
-0.2802734375,0.187255859375,0.862091064453125
-0.4427490234375,0.218292236328125,0.8642730712890625
-0.64154052734375,0.234161376953125,0.849884033203125
-0.83868408203125,0.217254638671875,0.8271026611328125
-1.073516845703125,0.1898040771484375,0.84539794921875
-1.295684814453125,0.1515655517578125,0.87786865234375
-1.466796875,0.1248321533203125,0.8950347900390625
-1.6040802001953125,0.1250457763671875,0.9118194580078125
-1.6667022705078125,0.10089111328125,0.8904876708984375
-1.71142578125,0.061126708984375,0.840789794921875
-1.76837158203125,-0.00775146484375,0.783294677734375
-1.860260009765625,-0.0735931396484375,0.696044921875
-1.988800048828125,-0.1316680908203125,0.5938873291015625
-2.0962677001953125,-0.1938018798828125,0.5100250244140625
-2.200347900390625,-0.2212371826171875,0.4298553466796875
-2.29278564453125,-0.2552032470703125,0.33111572265625
-2.3463287353515625,-0.2962799072265625,0.238800048828125
-2.38812255859375,-0.3171539306640625,0.16485595703125
-2.42315673828125,-0.3183746337890625,0.0961151123046875
-2.4160308837890625,-0.3530426025390625,0.0250701904296875
-2.3974151611328125,-0.3682861328125,-0.0321044921875
-2.3891754150390625,-0.3959503173828125,-0.0831298828125
-2.357208251953125,-0.4159698486328125,-0.127777099609375
-2.321533203125,-0.4147796630859375,-0.185699462890625
-2.2762603759765625,-0.413055419921875,-0.2372283935546875
-2.2086944580078125,-0.424346923828125,-0.2768096923828125
-2.142425537109375,-0.4314117431640625,-0.304595947265625
-2.0769805908203125,-0.420562744140625,-0.2981414794921875
-1.9992828369140625,-0.4110107421875,-0.272369384765625
-1.918365478515625,-0.3838348388671875,-0.22698974609375
-1.83392333984375,-0.3714141845703125,-0.1746368408203125
-1.743743896484375,-0.3353424072265625,-0.1308746337890625
-1.6492462158203125,-0.298248291015625,-0.091339111328125
-1.5629425048828125,-0.2490234375,-0.0502471923828125
-1.4647064208984375,-0.1855621337890625,-0.0244598388671875
-1.33721923828125,-0.141754150390625,-0.02069091796875
-1.2023773193359375,-0.0900115966796875,-0.0262603759765625
-1.0641937255859375,-0.0410614013671875,-0.0238189697265625
-0.935546875,0.0003204345703125,-0.008941650390625
-0.788055419921875,0.0319671630859375,0.007476806640625
-0.6187286376953125,0.04461669921875,0.021636962890625
-0.4550018310546875,0.0844573974609375,0.0426025390625
-0.27099609375,0.1509552001953125,0.0450439453125
-0.07476806640625,0.192596435546875,0.039459228515625
0.1534423828125,0.2015838623046875,0.0495758056640625
0.38153076171875,0.19580078125,0.03338623046875
0.5655364990234375,0.1939544677734375,-0.005401611328125
0.7496795654296875,0.206939697265625,-0.0399932861328125
0.9385986328125,0.208770751953125,-0.0738525390625
1.119476318359375,0.1917724609375,-0.1057281494140625
1.2735595703125,0.2154998779296875,-0.1291656494140625
1.402618408203125,0.23504638671875,-0.1415252685546875
1.484039306640625,0.25054931640625,-0.1551055908203125
1.5087127685546875,0.255859375,-0.161895751953125
1.4848480224609375,0.2467803955078125,-0.1515350341796875
1.4193115234375,0.232025146484375,-0.1345977783203125
1.30047607421875,0.220672607421875,-0.1024932861328125
1.1158294677734375,0.2025146484375,-0.06329345703125
0.8994598388671875,0.1789703369140625,-0.0179595947265625
0.6465606689453125,0.151580810546875,0.0381622314453125
0.3699798583984375,0.1366729736328125,0.088714599609375
0.119781494140625,0.09039306640625,0.142059326171875
-0.11053466796875,0.035064697265625,0.194305419921875
-0.3164215087890625,-0.0174713134765625,0.260986328125
-0.5142669677734375,-0.08209228515625,0.3342742919921875
-0.704498291015625,-0.1179962158203125,0.3697357177734375
-0.879180908203125,-0.164947509765625,0.403564453125
-1.0210723876953125,-0.2053680419921875,0.4135284423828125
-1.1518707275390625,-0.228515625,0.4063262939453125
-1.2677764892578125,-0.25592041015625,0.406219482421875
-1.3839874267578125,-0.2743988037109375,0.410675048828125
-1.49102783203125,-0.3022308349609375,0.4229888916015625
-1.5813140869140625,-0.2996978759765625,0.4507598876953125
-1.633544921875,-0.3314056396484375,0.4544525146484375
-1.653106689453125,-0.3175201416015625,0.4399871826171875
-1.642547607421875,-0.368499755859375,0.425048828125
-1.6512451171875,-0.375396728515625,0.4265899658203125
-1.661041259765625,-0.35028076171875,0.4027557373046875
-1.6467132568359375,-0.36016845703125,0.3546600341796875
-1.6322479248046875,-0.369781494140625,0.327301025390625
-1.607269287109375,-0.3766021728515625,0.29791259765625
-1.590179443359375,-0.4360809326171875,0.3193817138671875
-1.59918212890625,-0.4227752685546875,0.3730316162109375
-1.6084442138671875,-0.388336181640625,0.4011993408203125
-1.59185791015625,-0.382537841796875,0.44366455078125
-1.5663604736328125,-0.3918914794921875,0.4705352783203125
-1.570068359375,-0.4266357421875,0.49188232421875
-1.5981292724609375,-0.44195556640625,0.51214599609375
-1.6394195556640625,-0.4595947265625,0.4849853515625
-1.6823883056640625,-0.521484375,0.4666748046875
-1.7323760986328125,-0.5279998779296875,0.437042236328125
-1.7793426513671875,-0.5322418212890625,0.3845367431640625
-1.8246917724609375,-0.560821533203125,0.34368896484375
-1.890533447265625,-0.5771484375,0.3106231689453125
-1.9678497314453125,-0.6022796630859375,0.2760467529296875
-2.0375518798828125,-0.596221923828125,0.2511444091796875
-2.072021484375,-0.6006011962890625,0.2312774658203125
-2.0710906982421875,-0.6044158935546875,0.19012451171875
-2.05169677734375,-0.5919189453125,0.140350341796875
-2.010986328125,-0.573883056640625,0.095977783203125
-1.9507293701171875,-0.5531158447265625,0.0523529052734375
-1.8868560791015625,-0.5185699462890625,0.0218505859375
-1.806365966796875,-0.48480224609375,-0.01959228515625
-1.6981964111328125,-0.4665985107421875,-0.0608978271484375
-1.5760650634765625,-0.44403076171875,-0.091033935546875
-1.45233154296875,-0.427764892578125,-0.1199798583984375
-1.3297576904296875,-0.4022216796875,-0.1381988525390625
-1.2088470458984375,-0.379547119140625,-0.1539764404296875
-1.1041107177734375,-0.3542633056640625,-0.1490325927734375
-0.980865478515625,-0.338104248046875,-0.13934326171875
-0.8397979736328125,-0.319183349609375,-0.1363067626953125
-0.6650848388671875,-0.2816314697265625,-0.1143035888671875
-0.46929931640625,-0.23553466796875,-0.11761474609375
-0.2715301513671875,-0.1367950439453125,-0.1284332275390625
-0.06341552734375,-0.054595947265625,-0.126708984375
0.12237548828125,0.003814697265625,-0.1074371337890625
0.3050994873046875,0.0384063720703125,-0.0740203857421875
0.4664306640625,0.0720977783203125,-0.044158935546875
0.6163330078125,0.1236419677734375,-0.01922607421875
0.7455291748046875,0.1781463623046875,-0.0197906494140625
0.8128814697265625,0.2271881103515625,0.009002685546875
0.8186492919921875,0.2283782958984375,0.0209503173828125
0.770599365234375,0.2142181396484375,0.023834228515625
0.70806884765625,0.1728515625,0.0670623779296875
0.6126556396484375,0.1492919921875,0.0883941650390625
0.48358154296875,0.119598388671875,0.1255340576171875
0.3325653076171875,0.05718994140625,0.1815032958984375
0.1355133056640625,0.033477783203125,0.264190673828125
-0.0983428955078125,0.006622314453125,0.3665924072265625
-0.360443115234375,-0.008575439453125,0.4500885009765625
-0.59417724609375,-0.0447845458984375,0.5370025634765625
-0.8068084716796875,-0.1290283203125,0.6025390625
-0.9989471435546875,-0.154876708984375,0.6411285400390625
-1.159942626953125,-0.1798095703125,0.641265869140625
-1.285430908203125,-0.21502685546875,0.61529541015625
-1.384796142578125,-0.2337799072265625,0.5694732666015625
-1.44439697265625,-0.287506103515625,0.4973907470703125
-1.4961700439453125,-0.30816650390625,0.4253387451171875
-1.5328826904296875,-0.3354034423828125,0.41046142578125
-1.592010498046875,-0.377288818359375,0.437957763671875
-1.6846466064453125,-0.3773956298828125,0.4862518310546875
-1.791534423828125,-0.396148681640625,0.544403076171875
-1.9160614013671875,-0.4258270263671875,0.5990753173828125
-2.0247955322265625,-0.4570159912109375,0.6459197998046875
-2.090972900390625,-0.510040283203125,0.6617431640625
-2.10540771484375,-0.585296630859375,0.65557861328125
-2.0831756591796875,-0.622467041015625,0.6254730224609375
-2.035400390625,-0.6286773681640625,0.57427978515625
-1.9893035888671875,-0.6273956298828125,0.4945526123046875
-1.9525146484375,-0.62030029296875,0.4026336669921875
-1.9212188720703125,-0.6282958984375,0.3204498291015625
-1.8847198486328125,-0.6358184814453125,0.2468414306640625
-1.842620849609375,-0.613128662109375,0.19512939453125
-1.7777862548828125,-0.592132568359375,0.1503448486328125
-1.688720703125,-0.5615081787109375,0.118743896484375
-1.5899810791015625,-0.5299224853515625,0.0811004638671875
-1.47265625,-0.50482177734375,0.031402587890625
-1.361663818359375,-0.486480712890625,-0.021484375
-1.26885986328125,-0.4688568115234375,-0.0591278076171875
-1.1779327392578125,-0.4824066162109375,-0.093505859375
-1.1030120849609375,-0.465118408203125,-0.1218414306640625
-1.0102386474609375,-0.4507598876953125,-0.1405792236328125
-0.9119873046875,-0.43585205078125,-0.1475677490234375
-0.8043365478515625,-0.42291259765625,-0.140838623046875
-0.683746337890625,-0.410003662109375,-0.136260986328125
-0.56463623046875,-0.37982177734375,-0.13299560546875
-0.4330291748046875,-0.330078125,-0.1052703857421875
-0.2762298583984375,-0.2817230224609375,-0.1014404296875
-0.133575439453125,-0.218414306640625,-0.12060546875
-0.0031585693359375,-0.1539764404296875,-0.1242828369140625
0.11968994140625,-0.086151123046875,-0.1031341552734375
0.11968994140625,-0.086151123046875,-0.1031341552734375
0.22125244140625,-0.033905029296875,-0.071258544921875
0.400390625,0.0347442626953125,0.0858001708984375
0.400390625,0.0347442626953125,0.0858001708984375
0.45928955078125,0.0450286865234375,0.2614288330078125
0.45928955078125,0.0450286865234375,0.2614288330078125
0.438140869140625,0.0541534423828125,0.4068145751953125
0.438140869140625,0.0541534423828125,0.4068145751953125
0.3475494384765625,0.05609130859375,0.5039520263671875
0.3475494384765625,0.05609130859375,0.5039520263671875
0.162200927734375,0.0706939697265625,0.561370849609375
0.162200927734375,0.0706939697265625,0.561370849609375
-0.1319122314453125,0.118408203125,0.532989501953125
-0.1319122314453125,0.118408203125,0.532989501953125
-0.3118133544921875,0.12884521484375,0.48699951171875
-0.4904937744140625,0.10736083984375,0.4422760009765625
-0.6241912841796875,0.046234130859375,0.4045867919921875
-0.7421112060546875,0.017730712890625,0.38861083984375
-0.83123779296875,-0.0160675048828125,0.402984619140625
-0.908111572265625,-0.051177978515625,0.4207916259765625
-0.9957122802734375,-0.076629638671875,0.4709320068359375
-1.0968475341796875,-0.125213623046875,0.5357513427734375
-1.2340087890625,-0.176910400390625,0.61749267578125
-1.391082763671875,-0.2364044189453125,0.6949462890625
-1.5528717041015625,-0.2861480712890625,0.7571868896484375
-1.9052734375,-0.314300537109375,0.803802490234375
-1.9052734375,-0.314300537109375,0.803802490234375
-2.070709228515625,-0.3299713134765625,0.7941741943359375
-2.18695068359375,-0.3711700439453125,0.7736663818359375
-2.2777099609375,-0.4058685302734375,0.746795654296875
-2.3463592529296875,-0.40771484375,0.7066497802734375
-2.3818206787109375,-0.4295654296875,0.6543121337890625
-2.37548828125,-0.453094482421875,0.582672119140625
-2.35589599609375,-0.48785400390625,0.5106353759765625
-2.3095550537109375,-0.5157928466796875,0.447601318359375
-2.271575927734375,-0.51776123046875,0.379425048828125
-2.22857666015625,-0.522125244140625,0.321197509765625
-2.18218994140625,-0.5075836181640625,0.28106689453125
-2.1284332275390625,-0.4971771240234375,0.2247772216796875
-2.0583038330078125,-0.4794769287109375,0.1710205078125
-1.959625244140625,-0.4828948974609375,0.10870361328125
-1.8490753173828125,-0.4636993408203125,0.04534912109375
-1.7263641357421875,-0.421356201171875,-0.016845703125
-1.5841064453125,-0.4191131591796875,-0.0924530029296875
-1.428375244140625,-0.4160308837890625,-0.156097412109375
-1.279632568359375,-0.4040985107421875,-0.2061004638671875
-1.1332244873046875,-0.39013671875,-0.2470550537109375
-0.98944091796875,-0.37969970703125,-0.287353515625
-0.857177734375,-0.361663818359375,-0.3263397216796875
-0.72613525390625,-0.3477020263671875,-0.3565216064453125
-0.5975341796875,-0.360748291015625,-0.39642333984375
-0.4713897705078125,-0.3666229248046875,-0.4252166748046875
-0.342681884765625,-0.3551025390625,-0.4357147216796875
-0.2196502685546875,-0.3355255126953125,-0.455078125
-0.1011199951171875,-0.302032470703125,-0.4661712646484375
0.035980224609375,-0.28814697265625,-0.4692230224609375
0.152374267578125,-0.2611541748046875,-0.477752685546875
0.24493408203125,-0.2132110595703125,-0.4339752197265625
0.319305419921875,-0.1922149658203125,-0.376861572265625
0.350799560546875,-0.1778564453125,-0.3099365234375
0.3514404296875,-0.1925506591796875,-0.232086181640625
0.31524658203125,-0.19525146484375,-0.1544952392578125
0.2567138671875,-0.228302001953125,-0.0388946533203125
0.1782989501953125,-0.31939697265625,0.0871124267578125
0.0481719970703125,-0.3970489501953125,0.196807861328125
-0.132080078125,-0.4505767822265625,0.308563232421875
-0.3017425537109375,-0.452911376953125,0.41204833984375
-0.44927978515625,-0.459869384765625,0.474700927734375
-0.5651092529296875,-0.4409332275390625,0.4884185791015625
-0.6352996826171875,-0.42205810546875,0.46710205078125
-0.6888580322265625,-0.413055419921875,0.4019622802734375
-0.6843719482421875,-0.4130859375,0.358306884765625
-0.630615234375,-0.404510498046875,0.3299102783203125
-0.5858154296875,-0.337066650390625,0.3607635498046875
-0.5323333740234375,-0.278411865234375,0.3899688720703125
-0.499664306640625,-0.2253570556640625,0.4170379638671875
-0.4447021484375,-0.1962432861328125,0.5118408203125
-0.3907623291015625,-0.1677398681640625,0.5511474609375
-0.33453369140625,-0.067596435546875,0.5915985107421875
-0.2479400634765625,-0.0573577880859375,0.594482421875
-0.1575927734375,3.0517578125e-05,0.578369140625
-0.0115203857421875,0.0071563720703125,0.575347900390625
0.149627685546875,-0.0245513916015625,0.5480804443359375
0.2401123046875,-0.018524169921875,0.52227783203125
0.257965087890625,-0.0209808349609375,0.590057373046875
0.173828125,0.0498199462890625,0.697967529296875
0.01171875,0.1037750244140625,0.8514251708984375
-0.2011871337890625,0.0835113525390625,1.012786865234375
-0.449554443359375,0.0606536865234375,1.1206817626953125
-0.7183990478515625,0.058807373046875,1.239990234375
-0.984344482421875,0.045989990234375,1.33575439453125
-1.2484130859375,0.0367431640625,1.3859405517578125
-1.4551849365234375,-0.011810302734375,1.3612823486328125
-1.6403656005859375,-0.076568603515625,1.300750732421875
-1.74847412109375,-0.1511688232421875,1.24365234375
-1.8086700439453125,-0.2722320556640625,1.1150054931640625
-1.86090087890625,-0.356689453125,0.9623260498046875
-1.89007568359375,-0.427642822265625,0.84716796875
-1.92340087890625,-0.4842681884765625,0.723663330078125
-1.967498779296875,-0.563873291015625,0.560333251953125
-1.9974517822265625,-0.64453125,0.4126129150390625
-2.022216796875,-0.6971282958984375,0.33319091796875
-2.0440673828125,-0.74249267578125,0.2887115478515625
-2.0776214599609375,-0.780975341796875,0.26177978515625
-2.1288299560546875,-0.7896881103515625,0.2379608154296875
-2.1991424560546875,-0.78057861328125,0.1935272216796875
-2.2371063232421875,-0.7820587158203125,0.1468505859375
-2.2284698486328125,-0.7984161376953125,0.0891265869140625
-2.20703125,-0.795074462890625,0.019989013671875
-2.136016845703125,-0.78594970703125,-0.0465087890625
-2.0325927734375,-0.7559356689453125,-0.0960235595703125
-1.9006195068359375,-0.7105712890625,-0.1185455322265625
-1.74456787109375,-0.6678466796875,-0.12548828125
-1.5812835693359375,-0.62664794921875,-0.10870361328125
-1.41510009765625,-0.574432373046875,-0.0468292236328125
-1.2448272705078125,-0.552978515625,0.002777099609375
-1.0743865966796875,-0.5103607177734375,0.040802001953125
-0.9134063720703125,-0.475372314453125,0.061370849609375
-0.7572021484375,-0.4261322021484375,0.0667266845703125
-0.591522216796875,-0.3695220947265625,0.0883636474609375
-0.434173583984375,-0.3109130859375,0.128875732421875
-0.294158935546875,-0.2426300048828125,0.1490478515625
-0.1746673583984375,-0.1540985107421875,0.183013916015625
-0.05523681640625,-0.09039306640625,0.220367431640625
0.0553131103515625,-0.0525665283203125,0.250396728515625
0.180816650390625,-0.0227203369140625,0.2978515625
0.2888641357421875,-0.001708984375,0.324859619140625
0.4129791259765625,0.0420989990234375,0.3555145263671875
0.5296173095703125,0.0953216552734375,0.3616943359375
0.6146087646484375,0.13934326171875,0.329681396484375
0.670623779296875,0.1555023193359375,0.3059234619140625
0.6964874267578125,0.135711669921875,0.2847900390625
0.6879119873046875,0.0958404541015625,0.24420166015625
0.6388702392578125,0.0726776123046875,0.208343505859375
0.575653076171875,0.0465545654296875,0.174102783203125
0.4965667724609375,-0.00408935546875,0.169708251953125
0.3938140869140625,-0.0284576416015625,0.1717071533203125
0.246246337890625,-0.054656982421875,0.1995391845703125
0.0772552490234375,-0.0977630615234375,0.2509307861328125
-0.1040191650390625,-0.1234893798828125,0.2805938720703125
-0.2745361328125,-0.1425933837890625,0.30609130859375
-0.440673828125,-0.172637939453125,0.2938079833984375
-0.5796051025390625,-0.2107696533203125,0.283599853515625
-0.6917266845703125,-0.2718048095703125,0.2964324951171875
-0.787445068359375,-0.348724365234375,0.309326171875
-0.883697509765625,-0.4214324951171875,0.361114501953125
-0.9798583984375,-0.45806884765625,0.3986968994140625
-1.1004486083984375,-0.44488525390625,0.4578857421875
-1.212127685546875,-0.43878173828125,0.546417236328125
-1.3512115478515625,-0.440887451171875,0.6363983154296875
-1.524871826171875,-0.448333740234375,0.77435302734375
-1.718109130859375,-0.4418792724609375,0.9400482177734375
-1.9173736572265625,-0.4281158447265625,1.113067626953125
-2.0642547607421875,-0.42901611328125,1.24981689453125
-2.157928466796875,-0.4121551513671875,1.3281402587890625
-2.1904449462890625,-0.40216064453125,1.3734588623046875
-2.1975250244140625,-0.404510498046875,1.371795654296875
-2.18084716796875,-0.39141845703125,1.334564208984375
-2.129852294921875,-0.373046875,1.26776123046875
-2.0513153076171875,-0.378814697265625,1.202239990234375
-1.966461181640625,-0.39080810546875,1.12530517578125
-1.89373779296875,-0.39434814453125,1.0254974365234375
-1.8201446533203125,-0.4001617431640625,0.9273223876953125
-1.763763427734375,-0.3863067626953125,0.8162078857421875
-1.7336883544921875,-0.34619140625,0.7122955322265625
-1.693115234375,-0.3309478759765625,0.644073486328125
-1.6485595703125,-0.3248291015625,0.5912628173828125
-1.6014404296875,-0.3209228515625,0.563751220703125
-1.52557373046875,-0.3228302001953125,0.5412750244140625
-1.4513702392578125,-0.308685302734375,0.5068817138671875
-1.389862060546875,-0.2847747802734375,0.462615966796875
-1.333740234375,-0.269378662109375,0.415130615234375
-1.273773193359375,-0.276123046875,0.359039306640625
-1.200347900390625,-0.2666473388671875,0.2914276123046875
-1.1116790771484375,-0.25469970703125,0.231201171875
-1.0086822509765625,-0.2418670654296875,0.2081756591796875
-0.9026031494140625,-0.2273406982421875,0.1776275634765625
-0.791717529296875,-0.23065185546875,0.1266632080078125
-0.683258056640625,-0.250396728515625,0.083953857421875
-0.59259033203125,-0.25543212890625,0.0346832275390625
-0.517852783203125,-0.2446441650390625,0.000640869140625
-0.4625396728515625,-0.239471435546875,-0.003265380859375
-0.3953399658203125,-0.25421142578125,-0.0003204345703125
-0.3338470458984375,-0.235015869140625,0.0089569091796875
-0.2636260986328125,-0.234161376953125,0.03436279296875
-0.1793670654296875,-0.2619781494140625,0.05841064453125
-0.1079254150390625,-0.268280029296875,0.0792083740234375
-0.011566162109375,-0.2989349365234375,0.1555328369140625
0.086456298828125,-0.3166961669921875,0.217498779296875
0.1663055419921875,-0.309356689453125,0.2274627685546875
0.2335357666015625,-0.2760467529296875,0.2368621826171875
0.3027191162109375,-0.2489166259765625,0.221832275390625
0.390380859375,-0.204132080078125,0.1719818115234375
0.4846038818359375,-0.168212890625,0.095367431640625
0.5802459716796875,-0.097198486328125,0.034423828125
0.6879730224609375,-0.038787841796875,-0.007659912109375
0.79010009765625,-0.0302581787109375,-0.047027587890625
0.8880157470703125,-0.027252197265625,-0.0291290283203125
0.9846954345703125,-0.0819854736328125,-0.01312255859375
1.02899169921875,-0.0852813720703125,0.0257110595703125
1.041595458984375,-0.0533599853515625,0.097320556640625
1.035919189453125,-0.05438232421875,0.14947509765625
0.985870361328125,-0.0249786376953125,0.199188232421875
0.8980712890625,-0.004180908203125,0.2464752197265625
0.7742462158203125,0.0230712890625,0.2825775146484375
0.61767578125,0.0588836669921875,0.324859619140625
0.426910400390625,0.0719757080078125,0.362457275390625
0.1868133544921875,0.0767364501953125,0.38641357421875
-0.0605316162109375,0.0863189697265625,0.4000396728515625
-0.3059539794921875,0.1029510498046875,0.4205474853515625
-0.53564453125,0.0944671630859375,0.459869384765625
-0.7103118896484375,0.0324249267578125,0.509063720703125
-0.8488311767578125,-0.05963134765625,0.5818634033203125
-0.96160888671875,-0.14788818359375,0.64849853515625
-1.07183837890625,-0.2082061767578125,0.7260284423828125
-1.1958465576171875,-0.214996337890625,0.7859954833984375
-1.315887451171875,-0.2476043701171875,0.8322296142578125
-1.4560394287109375,-0.3000946044921875,0.887939453125
-1.6221160888671875,-0.351318359375,0.938720703125
-1.8003082275390625,-0.3899993896484375,0.95953369140625
-1.96820068359375,-0.402557373046875,0.9878387451171875
-1.96820068359375,-0.402557373046875,0.9878387451171875
-2.1886749267578125,-0.405670166015625,1.0461883544921875
-2.229248046875,-0.4438018798828125,1.08599853515625
-2.229248046875,-0.4438018798828125,1.08599853515625
-2.236297607421875,-0.4553680419921875,1.207366943359375
-2.236297607421875,-0.4553680419921875,1.207366943359375
-2.1914825439453125,-0.4789276123046875,1.3506927490234375
-2.1914825439453125,-0.4789276123046875,1.3506927490234375
-2.1135711669921875,-0.5062255859375,1.379150390625
-2.1135711669921875,-0.5062255859375,1.379150390625
-2.0278167724609375,-0.5144500732421875,1.3519439697265625
-1.9385223388671875,-0.4944610595703125,1.31304931640625
-1.84033203125,-0.45166015625,1.2601776123046875
-1.7513275146484375,-0.399810791015625,1.19866943359375
-1.6655731201171875,-0.352447509765625,1.15631103515625
-1.5847015380859375,-0.3178863525390625,1.1188812255859375
-1.502166748046875,-0.3015594482421875,1.072601318359375
-1.4306793212890625,-0.22479248046875,1.0755767822265625
-1.339752197265625,-0.1748809814453125,1.0720062255859375
-1.2841949462890625,-0.1515960693359375,1.0465240478515625
-1.220947265625,-0.136749267578125,0.99725341796875
-1.1406402587890625,-0.1546478271484375,0.89385986328125
-1.0372467041015625,-0.14984130859375,0.7322998046875
-0.9169769287109375,-0.1322479248046875,0.545684814453125
-0.78466796875,-0.1244659423828125,0.3549041748046875
-0.660919189453125,-0.168975830078125,0.156097412109375
-0.5369873046875,-0.21685791015625,-0.0242462158203125
-0.4241943359375,-0.2590179443359375,-0.2006988525390625
-0.3103790283203125,-0.290802001953125,-0.3711395263671875
-0.1902313232421875,-0.329345703125,-0.5272674560546875
-0.091827392578125,-0.3589935302734375,-0.657958984375
-0.0078277587890625,-0.368804931640625,-0.779083251953125
0.0692596435546875,-0.3851776123046875,-0.8836822509765625
0.1305084228515625,-0.384307861328125,-0.9520263671875
0.1689605712890625,-0.3841705322265625,-0.9890594482421875
0.190826416015625,-0.3787078857421875,-0.9608306884765625
0.219146728515625,-0.39501953125,-0.9140472412109375
0.257720947265625,-0.3859710693359375,-0.8218841552734375
0.31884765625,-0.38861083984375,-0.689849853515625
0.3785552978515625,-0.358123779296875,-0.55279541015625
0.422698974609375,-0.332061767578125,-0.40032958984375
0.442474365234375,-0.30548095703125,-0.273590087890625
0.4074859619140625,-0.26556396484375,-0.1524505615234375
0.342071533203125,-0.2380523681640625,0.008270263671875
0.2547149658203125,-0.23980712890625,0.157684326171875
0.117279052734375,-0.2115631103515625,0.3243560791015625
-0.028839111328125,-0.205657958984375,0.492462158203125
-0.1876068115234375,-0.20294189453125,0.6435394287109375
-0.3503875732421875,-0.1589202880859375,0.809844970703125
-0.485809326171875,-0.152923583984375,0.9416961669921875
-0.6244659423828125,-0.127197265625,1.0493621826171875
-0.7438812255859375,-0.0989990234375,1.149017333984375
-0.840484619140625,-0.0990447998046875,1.2408905029296875
-0.9503326416015625,-0.1059417724609375,1.30010986328125
-1.06329345703125,-0.1074981689453125,1.347259521484375
-1.1666717529296875,-0.1233673095703125,1.38134765625
-1.248504638671875,-0.1427154541015625,1.40301513671875
-1.2987213134765625,-0.1698760986328125,1.41961669921875
-1.309478759765625,-0.174896240234375,1.43780517578125
-1.3128662109375,-0.170867919921875,1.4345855712890625
-1.3128204345703125,-0.1421356201171875,1.4273681640625
-1.2967681884765625,-0.13787841796875,1.4104766845703125
-1.283905029296875,-0.1301422119140625,1.3661956787109375
-1.253265380859375,-0.1099090576171875,1.319488525390625
-1.2075958251953125,-0.1270599365234375,1.2433929443359375
-1.1538238525390625,-0.141082763671875,1.1438446044921875
-1.1023712158203125,-0.1396331787109375,1.03387451171875
-1.036712646484375,-0.154937744140625,0.9033966064453125
-0.9590301513671875,-0.1713409423828125,0.7671661376953125
-0.8744659423828125,-0.195556640625,0.614715576171875
-0.7984771728515625,-0.2234039306640625,0.4541168212890625
-0.7281036376953125,-0.255706787109375,0.3108367919921875
-0.6729736328125,-0.3147735595703125,0.1771392822265625
-0.638519287109375,-0.3717803955078125,0.08074951171875
-0.630035400390625,-0.413604736328125,-0.00750732421875
-0.6271820068359375,-0.4779205322265625,-0.0822906494140625
-0.6387481689453125,-0.5282440185546875,-0.1395721435546875
-0.6511993408203125,-0.5788116455078125,-0.2071533203125
-0.66204833984375,-0.6138763427734375,-0.25360107421875
-0.691131591796875,-0.6259307861328125,-0.2667999267578125
-0.733123779296875,-0.61737060546875,-0.23968505859375
-0.7895965576171875,-0.6322021484375,-0.2217254638671875
-0.887939453125,-0.6441802978515625,-0.1782073974609375
-0.9919281005859375,-0.65570068359375,-0.106719970703125
-1.09759521484375,-0.669189453125,-0.00115966796875
-1.2166748046875,-0.6427154541015625,0.1348876953125
-1.348876953125,-0.5957183837890625,0.3023529052734375
-1.46612548828125,-0.5664825439453125,0.46502685546875
-1.5607452392578125,-0.5851898193359375,0.5824432373046875
-1.6187896728515625,-0.602294921875,0.6544036865234375
-1.6544036865234375,-0.6162109375,0.672210693359375
-1.662078857421875,-0.632049560546875,0.6396331787109375
-1.67828369140625,-0.61968994140625,0.56463623046875
-1.693267822265625,-0.600982666015625,0.4750518798828125
-1.699951171875,-0.5835418701171875,0.3933563232421875
-1.693145751953125,-0.558502197265625,0.3253173828125
-1.6645355224609375,-0.551483154296875,0.2615966796875
-1.6141204833984375,-0.535919189453125,0.22943115234375
-1.5491485595703125,-0.516448974609375,0.2238311767578125
-1.464569091796875,-0.5038909912109375,0.240570068359375
-1.357330322265625,-0.488250732421875,0.25787353515625
-1.2462921142578125,-0.4868927001953125,0.236419677734375
-1.134613037109375,-0.4635162353515625,0.198638916015625
-1.0206756591796875,-0.4368896484375,0.14544677734375
-0.9113616943359375,-0.4095001220703125,0.0771942138671875
-0.8112335205078125,-0.3684539794921875,0.020355224609375
-0.674346923828125,-0.358245849609375,-0.02716064453125
-0.5544281005859375,-0.3114471435546875,-0.0809173583984375
-0.435455322265625,-0.2188720703125,-0.08074951171875
-0.33721923828125,-0.1153564453125,-0.067626953125
-0.2666473388671875,-0.0229949951171875,-0.037445068359375
-0.192657470703125,0.065704345703125,0.0175933837890625
-0.088958740234375,0.104522705078125,0.089141845703125
0.0472869873046875,0.1045684814453125,0.2050323486328125
0.193023681640625,0.1023101806640625,0.3349761962890625
0.3463592529296875,0.0931396484375,0.49041748046875
0.476837158203125,0.1082763671875,0.649871826171875
0.5923614501953125,0.1494903564453125,0.8250274658203125
0.6650238037109375,0.1736297607421875,1.005401611328125
0.6647186279296875,0.1943206787109375,1.1366729736328125
0.598236083984375,0.21820068359375,1.2270050048828125
0.4700775146484375,0.2192230224609375,1.295440673828125
0.286407470703125,0.23760986328125,1.324798583984375
0.0663299560546875,0.26519775390625,1.3414459228515625
-0.162384033203125,0.3071746826171875,1.3399658203125
-0.358306884765625,0.3028564453125,1.325775146484375
-0.527557373046875,0.27850341796875,1.3235321044921875
-0.665435791015625,0.2466888427734375,1.33551025390625
-0.80413818359375,0.233428955078125,1.35284423828125
-0.9316864013671875,0.2224884033203125,1.383544921875
-1.050384521484375,0.2253570556640625,1.4279327392578125
-1.1485595703125,0.2000579833984375,1.46630859375
-1.2445068359375,0.1605224609375,1.4785614013671875
-1.3743438720703125,0.1996307373046875,1.4506378173828125
-1.529815673828125,0.2210540771484375,1.4047393798828125
-1.685760498046875,0.23736572265625,1.3516387939453125
-1.8392333984375,0.2144012451171875,1.2908935546875
-1.9415130615234375,0.1655426025390625,1.2302398681640625
-1.9932861328125,0.11334228515625,1.1563720703125
-2.0361785888671875,0.0847320556640625,1.0728302001953125
-2.0667572021484375,0.069305419921875,0.948394775390625
-2.08837890625,0.0653228759765625,0.8260040283203125
-2.110504150390625,0.0221405029296875,0.6966705322265625
-2.1483917236328125,-0.0275115966796875,0.54095458984375
-2.2171478271484375,-0.0889434814453125,0.37353515625
-2.239105224609375,-0.1569976806640625,0.230010986328125
-2.2294921875,-0.2238006591796875,0.085693359375
-2.213775634765625,-0.254150390625,-0.0750732421875
-2.1478424072265625,-0.310302734375,-0.2344818115234375
-2.049530029296875,-0.3466339111328125,-0.4102020263671875
-1.9401702880859375,-0.359771728515625,-0.57794189453125
-1.830596923828125,-0.373931884765625,-0.758392333984375
-1.7107391357421875,-0.37322998046875,-0.9313201904296875
-1.5806884765625,-0.3744354248046875,-1.0815277099609375
-1.42919921875,-0.405426025390625,-1.1955413818359375
-1.25152587890625,-0.4106292724609375,-1.2663421630859375
-1.069915771484375,-0.370941162109375,-1.315948486328125
-0.873260498046875,-0.357513427734375,-1.3296661376953125
-0.670166015625,-0.37457275390625,-1.3318939208984375
-0.4926605224609375,-0.365234375,-1.314788818359375
-0.357208251953125,-0.336883544921875,-1.2989044189453125
-0.2486419677734375,-0.291046142578125,-1.2781829833984375
-0.162109375,-0.2452545166015625,-1.245635986328125
-0.09906005859375,-0.1788330078125,-1.1927490234375
-0.0464630126953125,-0.0938873291015625,-1.1290435791015625
0.0632171630859375,-0.0485992431640625,-1.0234375
0.2408905029296875,-0.0509033203125,-0.8711395263671875
0.4061279296875,-0.00103759765625,-0.691131591796875
0.5934295654296875,0.0520477294921875,-0.457061767578125
0.8090057373046875,0.082855224609375,-0.21875
0.9228973388671875,0.1181488037109375,0.0123138427734375
0.98779296875,0.1658782958984375,0.251312255859375
1.0072174072265625,0.1635284423828125,0.449615478515625
0.9390869140625,0.2030487060546875,0.6510009765625
0.83306884765625,0.2314605712890625,0.86285400390625
0.722076416015625,0.227447509765625,1.0432891845703125
0.61785888671875,0.25872802734375,1.22100830078125
0.5637969970703125,0.264495849609375,1.387298583984375
0.5103607177734375,0.2862548828125,1.48016357421875
0.4589996337890625,0.2750701904296875,1.514404296875
0.417633056640625,0.2543182373046875,1.5467071533203125
0.370269775390625,0.227874755859375,1.5189971923828125
0.274169921875,0.1976165771484375,1.4808349609375
0.14385986328125,0.165008544921875,1.45330810546875
-0.0084228515625,0.12347412109375,1.4122772216796875
-0.1676025390625,0.08984375,1.4073333740234375
-0.305908203125,0.0827484130859375,1.4430389404296875
-0.44622802734375,0.117462158203125,1.5079803466796875
-0.5756072998046875,0.1440887451171875,1.6332550048828125
-0.6884765625,0.1996917724609375,1.7845306396484375
-0.8153839111328125,0.2320404052734375,1.8815460205078125
-0.9413909912109375,0.2679290771484375,1.968292236328125
-1.078277587890625,0.286865234375,1.99700927734375
-1.25714111328125,0.308837890625,1.9478759765625
-1.4177398681640625,0.311798095703125,1.816375732421875
-1.557952880859375,0.3033447265625,1.64520263671875
-1.6728515625,0.2669219970703125,1.4037933349609375
-1.802398681640625,0.2407073974609375,1.1335601806640625
-1.8846435546875,0.1807708740234375,0.8771209716796875
-1.92144775390625,0.0887603759765625,0.6414642333984375
-1.968780517578125,-0.01458740234375,0.39886474609375
-1.986328125,-0.1494293212890625,0.1913604736328125
-1.9455718994140625,-0.2835540771484375,-0.00714111328125
-1.8806915283203125,-0.4349212646484375,-0.2007598876953125
-1.7831878662109375,-0.505279541015625,-0.374603271484375
-1.7022247314453125,-0.5282440185546875,-0.5227203369140625
-1.5978240966796875,-0.5477752685546875,-0.6468963623046875
-1.5072784423828125,-0.5810394287109375,-0.779632568359375
-1.3707275390625,-0.6231689453125,-0.90093994140625
-1.2231292724609375,-0.637786865234375,-0.9984130859375
-1.0573883056640625,-0.653106689453125,-1.06146240234375
-0.9259033203125,-0.6302032470703125,-1.062713623046875
-0.751007080078125,-0.5356597900390625,-1.072052001953125
-0.6545867919921875,-0.5797119140625,-1.0315399169921875
-0.547637939453125,-0.5306549072265625,-1.0880279541015625
-0.4680938720703125,-0.4434356689453125,-1.062713623046875
