Acceleration_X,Acceleration_Y,Acceleration_Z
-0.0948333740234375,-0.98101806640625,-0.2356414794921875
-0.1136016845703125,-0.9823455810546875,-0.22515869140625
-0.12371826171875,-0.97088623046875,-0.21295166015625
-0.138427734375,-0.9721527099609375,-0.217803955078125
-0.12738037109375,-0.9754180908203125,-0.217620849609375
-0.114105224609375,-0.98797607421875,-0.2227325439453125
-0.1169586181640625,-0.995452880859375,-0.219451904296875
-0.1164398193359375,-0.98095703125,-0.215240478515625
-0.115020751953125,-0.9737396240234375,-0.218231201171875
-0.1141815185546875,-0.9736785888671875,-0.229583740234375
-0.10009765625,-0.972259521484375,-0.236114501953125
-0.0905609130859375,-0.973480224609375,-0.244232177734375
-0.0915069580078125,-0.97027587890625,-0.2480926513671875
-0.0928955078125,-0.968505859375,-0.25079345703125
-0.0955352783203125,-0.9771575927734375,-0.2557525634765625
-0.099029541015625,-0.980224609375,-0.2568206787109375
-0.1089630126953125,-0.9725799560546875,-0.2700042724609375
-0.1107025146484375,-0.9742279052734375,-0.2675628662109375
-0.1076507568359375,-0.9803009033203125,-0.26495361328125
-0.1073760986328125,-0.9789581298828125,-0.2751922607421875
-0.108856201171875,-0.9735565185546875,-0.279510498046875
-0.11077880859375,-0.95953369140625,-0.281524658203125
-0.1128082275390625,-0.957611083984375,-0.287750244140625
-0.11114501953125,-0.966278076171875,-0.29302978515625
-0.100372314453125,-0.975921630859375,-0.2962646484375
-0.09979248046875,-0.9998626708984375,-0.3025054931640625
-0.1045074462890625,-1.020477294921875,-0.306671142578125
-0.1137847900390625,-1.0407562255859375,-0.3145751953125
-0.1112060546875,-1.066986083984375,-0.3231201171875
-0.1163482666015625,-1.098236083984375,-0.3348846435546875
-0.12384033203125,-1.127349853515625,-0.34783935546875
-0.1201171875,-1.1401214599609375,-0.371856689453125
-0.10888671875,-1.1438751220703125,-0.400390625
-0.1053924560546875,-1.1397247314453125,-0.439178466796875
-0.1094207763671875,-1.1260528564453125,-0.4870147705078125
-0.11480712890625,-1.1032257080078125,-0.521026611328125
-0.1116943359375,-1.082550048828125,-0.553253173828125
-0.1046295166015625,-1.0709686279296875,-0.599578857421875
-0.0869598388671875,-1.0522308349609375,-0.651702880859375
-0.06646728515625,-1.0328521728515625,-0.6832275390625
-0.0388946533203125,-1.00311279296875,-0.6954345703125
-0.0076751708984375,-0.9647369384765625,-0.7295074462890625
0.0041656494140625,-0.9378204345703125,-0.7454986572265625
0.008941650390625,-0.90435791015625,-0.717132568359375
0.0088958740234375,-0.8695220947265625,-0.6877593994140625
-0.0026702880859375,-0.8524017333984375,-0.64404296875
-0.0120697021484375,-0.835479736328125,-0.5540008544921875
-0.0240936279296875,-0.8186492919921875,-0.467620849609375
-0.0470428466796875,-0.799224853515625,-0.41009521484375
-0.072784423828125,-0.7866668701171875,-0.306427001953125
-0.092803955078125,-0.7768402099609375,-0.1974029541015625
-0.110260009765625,-0.7712860107421875,-0.123870849609375
-0.129119873046875,-0.7693939208984375,-0.05133056640625
-0.1272430419921875,-0.756500244140625,0.0246429443359375
-0.1316680908203125,-0.7384490966796875,0.0898590087890625
-0.1346435546875,-0.716552734375,0.1768798828125
-0.132781982421875,-0.6892547607421875,0.273529052734375
-0.1275482177734375,-0.6606292724609375,0.324859619140625
-0.11639404296875,-0.635345458984375,0.345428466796875
-0.080352783203125,-0.6412353515625,0.3714599609375
-0.0809326171875,-0.642578125,0.435546875
-0.0924835205078125,-0.61883544921875,0.505828857421875
-0.0828704833984375,-0.589080810546875,0.550811767578125
-0.0753021240234375,-0.552215576171875,0.5731353759765625
-0.071197509765625,-0.5118865966796875,0.5911407470703125
-0.0700225830078125,-0.47650146484375,0.6322784423828125
-0.06689453125,-0.4454193115234375,0.7083892822265625
-0.065582275390625,-0.42413330078125,0.737213134765625
-0.0679168701171875,-0.4102630615234375,0.738372802734375
-0.084625244140625,-0.4092864990234375,0.75628662109375
-0.110687255859375,-0.4205474853515625,0.8087005615234375
-0.122406005859375,-0.427154541015625,0.8294525146484375
-0.1290283203125,-0.4248199462890625,0.825592041015625
-0.138031005859375,-0.410064697265625,0.858245849609375
-0.14093017578125,-0.38922119140625,0.8939361572265625
-0.1459197998046875,-0.381988525390625,0.9482879638671875
-0.1342315673828125,-0.394683837890625,0.996673583984375
-0.115814208984375,-0.41168212890625,0.9930572509765625
-0.1060943603515625,-0.424652099609375,1.0234222412109375
-0.0939483642578125,-0.43829345703125,1.0664520263671875
-0.0835418701171875,-0.438446044921875,1.0796051025390625
-0.09027099609375,-0.4224090576171875,1.093963623046875
-0.1045684814453125,-0.4184722900390625,1.11395263671875
-0.1019287109375,-0.42303466796875,1.12286376953125
-0.0885467529296875,-0.4354248046875,1.1148681640625
-0.0774383544921875,-0.4887847900390625,1.1016845703125
-0.0855255126953125,-0.5222930908203125,1.0955963134765625
-0.1025543212890625,-0.513824462890625,1.086517333984375
-0.1149444580078125,-0.5052032470703125,1.0753631591796875
-0.13006591796875,-0.502166748046875,1.0470428466796875
-0.15032958984375,-0.4879913330078125,1.023895263671875
-0.169921875,-0.4782257080078125,1.012115478515625
-0.1705474853515625,-0.4913787841796875,0.979034423828125
-0.183258056640625,-0.5320281982421875,0.93658447265625
-0.198394775390625,-0.5699310302734375,0.924224853515625
-0.2078399658203125,-0.584564208984375,0.8867950439453125
-0.21722412109375,-0.58441162109375,0.85321044921875
-0.2372894287109375,-0.5861968994140625,0.826263427734375
-0.247314453125,-0.5915374755859375,0.78570556640625
-0.2472076416015625,-0.604339599609375,0.7365264892578125
-0.246124267578125,-0.62615966796875,0.6983795166015625
-0.24627685546875,-0.6428680419921875,0.6552734375
-0.235015869140625,-0.66754150390625,0.590118408203125
-0.24224853515625,-0.696441650390625,0.5309295654296875
-0.240692138671875,-0.709259033203125,0.478424072265625
-0.249298095703125,-0.724334716796875,0.4247589111328125
-0.24920654296875,-0.73846435546875,0.3939056396484375
-0.2473297119140625,-0.7597808837890625,0.3701934814453125
-0.262786865234375,-0.79248046875,0.3356170654296875
-0.270263671875,-0.801055908203125,0.3023834228515625
-0.2852783203125,-0.797210693359375,0.24957275390625
-0.3046722412109375,-0.800750732421875,0.2228240966796875
-0.3218994140625,-0.799713134765625,0.211883544921875
-0.33233642578125,-0.793304443359375,0.172760009765625
-0.3401947021484375,-0.798919677734375,0.1142730712890625
-0.348663330078125,-0.801727294921875,0.0601959228515625
-0.33642578125,-0.8028411865234375,0.0070037841796875
-0.32220458984375,-0.8122406005859375,-0.0545501708984375
-0.3120574951171875,-0.83453369140625,-0.12725830078125
-0.3110809326171875,-0.8582305908203125,-0.1913604736328125
-0.31365966796875,-0.8595733642578125,-0.2220001220703125
-0.314300537109375,-0.8484954833984375,-0.2601165771484375
-0.3085479736328125,-0.87078857421875,-0.314361572265625
-0.3033905029296875,-0.9163665771484375,-0.3845367431640625
-0.31103515625,-0.9530029296875,-0.4657745361328125
-0.328216552734375,-0.9719390869140625,-0.5150909423828125
-0.371246337890625,-0.9686737060546875,-0.5766448974609375
-0.4206390380859375,-0.97747802734375,-0.6088409423828125
-0.46234130859375,-1.0002288818359375,-0.6120452880859375
-0.48681640625,-1.0216217041015625,-0.6324920654296875
-0.5108795166015625,-1.0265960693359375,-0.666046142578125
-0.557373046875,-1.00689697265625,-0.6502227783203125
-0.620697021484375,-0.9696044921875,-0.66253662109375
-0.6941986083984375,-0.9603118896484375,-0.690765380859375
-0.754974365234375,-0.97406005859375,-0.6428680419921875
-0.821868896484375,-0.9981689453125,-0.6200408935546875
-0.892791748046875,-1.0049896240234375,-0.594573974609375
-0.9914093017578125,-0.9850006103515625,-0.5376739501953125
-1.0855712890625,-0.946868896484375,-0.5054473876953125
-1.142120361328125,-0.8972320556640625,-0.4730377197265625
-1.16204833984375,-0.8127593994140625,-0.3976287841796875
-1.12481689453125,-0.7405548095703125,-0.3397674560546875
-1.06024169921875,-0.748199462890625,-0.3384857177734375
-1.02301025390625,-0.7350311279296875,-0.2928924560546875
-0.9865570068359375,-0.6605072021484375,-0.1861419677734375
-1.006195068359375,-0.6366729736328125,-0.067230224609375
-1.0580902099609375,-0.6478118896484375,0.0519256591796875
-1.111846923828125,-0.675384521484375,0.1996612548828125
-1.10736083984375,-0.674835205078125,0.2888336181640625
-1.0858306884765625,-0.626953125,0.3477630615234375
-1.0493621826171875,-0.5828704833984375,0.41998291015625
-1.0127410888671875,-0.5731201171875,0.4227752685546875
-0.9862213134765625,-0.547943115234375,0.4127655029296875
-0.9576568603515625,-0.496063232421875,0.3966827392578125
-0.963775634765625,-0.49615478515625,0.40570068359375
-0.9937896728515625,-0.50189208984375,0.3804931640625
-1.009857177734375,-0.500457763671875,0.3804931640625
-1.0344085693359375,-0.49908447265625,0.4002685546875
-1.0415191650390625,-0.493804931640625,0.39031982421875
-1.0377197265625,-0.467498779296875,0.385955810546875
-1.03125,-0.4404296875,0.3696441650390625
-1.0097503662109375,-0.485809326171875,0.3138275146484375
-1.009124755859375,-0.57806396484375,0.2763671875
-1.02459716796875,-0.6382293701171875,0.228729248046875
-1.0587615966796875,-0.71087646484375,0.1749114990234375
-1.08856201171875,-0.78662109375,0.1085357666015625
-1.103271484375,-0.8077850341796875,0.041290283203125
-1.1152191162109375,-0.800872802734375,-0.018341064453125
-1.1406707763671875,-0.858428955078125,-0.092498779296875
-1.1548614501953125,-0.921234130859375,-0.1402587890625
-1.209075927734375,-0.9608001708984375,-0.20770263671875
-1.26947021484375,-1.0048980712890625,-0.25506591796875
-1.337921142578125,-1.0411224365234375,-0.29302978515625
-1.3971710205078125,-1.07763671875,-0.3328704833984375
-1.3971710205078125,-1.07763671875,-0.3328704833984375
-1.477996826171875,-1.1698760986328125,-0.3812255859375
-1.477996826171875,-1.1698760986328125,-0.3812255859375
-1.543426513671875,-1.0547027587890625,-0.4455108642578125
-1.543426513671875,-1.0547027587890625,-0.4455108642578125
-1.5590667724609375,-1.1146087646484375,-0.51519775390625
-1.5590667724609375,-1.1146087646484375,-0.51519775390625
-1.541107177734375,-1.130218505859375,-0.53363037109375
-1.5062255859375,-1.120513916015625,-0.53118896484375
-1.4293060302734375,-1.1240234375,-0.51959228515625
-1.3442230224609375,-1.077545166015625,-0.4651947021484375
-1.2313079833984375,-1.015411376953125,-0.4034881591796875
-1.10186767578125,-0.984893798828125,-0.3262176513671875
-0.9669647216796875,-0.9106903076171875,-0.275115966796875
-0.82354736328125,-0.8572235107421875,-0.2418670654296875
-0.7109527587890625,-0.8334503173828125,-0.1871795654296875
-0.6156463623046875,-0.77044677734375,-0.125274658203125
-0.524566650390625,-0.7425537109375,-0.054046630859375
-0.45068359375,-0.7211151123046875,-0.0024261474609375
-0.3914947509765625,-0.674163818359375,0.0603790283203125
-0.3428192138671875,-0.594573974609375,0.098358154296875
-0.3000030517578125,-0.5467529296875,0.1192626953125
-0.2814483642578125,-0.4792327880859375,0.132476806640625
-0.274017333984375,-0.3776397705078125,0.1562347412109375
-0.225006103515625,-0.283203125,0.1418914794921875
-0.167266845703125,-0.2246246337890625,0.0889892578125
-0.1223297119140625,-0.192718505859375,0.0389251708984375
-0.0681915283203125,-0.158538818359375,0.0117034912109375
-0.01763916015625,-0.106597900390625,-0.0110931396484375
0.0255126953125,-0.0645904541015625,-0.0293731689453125
0.092681884765625,-0.0451202392578125,-0.042572021484375
0.1501617431640625,-0.0337371826171875,-0.0555419921875
0.18292236328125,-0.0349273681640625,-0.028564453125
0.2097625732421875,-0.0048828125,0.0007781982421875
0.2411346435546875,0.010894775390625,0.0140838623046875
0.2407073974609375,0.0077972412109375,0.0354156494140625
0.2255859375,0.03521728515625,0.03997802734375
0.225067138671875,0.0475921630859375,0.0355377197265625
0.2139129638671875,0.0158843994140625,0.0002593994140625
0.1841278076171875,-0.0464324951171875,-0.0177154541015625
0.148406982421875,-0.10247802734375,-0.03240966796875
0.1248931884765625,-0.14923095703125,-0.0367584228515625
0.0891571044921875,-0.15289306640625,-0.03466796875
0.0302734375,-0.1147003173828125,-0.0220947265625
-0.0027313232421875,-0.13165283203125,-0.013702392578125
-0.0287322998046875,-0.1561431884765625,-0.0243377685546875
-0.119842529296875,-0.1847076416015625,-0.0214385986328125
-0.20306396484375,-0.243011474609375,-0.02069091796875
-0.2653045654296875,-0.3018035888671875,-0.0125732421875
-0.3371734619140625,-0.3578338623046875,0.016021728515625
-0.4039306640625,-0.4109649658203125,0.0649261474609375
-0.4517364501953125,-0.4395294189453125,0.147918701171875
-0.509063720703125,-0.4445953369140625,0.229827880859375
-0.593475341796875,-0.451202392578125,0.311065673828125
-0.6751556396484375,-0.451934814453125,0.3782196044921875
-0.756988525390625,-0.4937591552734375,0.4265594482421875
-0.8676910400390625,-0.5160675048828125,0.4573974609375
-0.9855804443359375,-0.510467529296875,0.4708404541015625
-1.093719482421875,-0.5284881591796875,0.5114288330078125
-1.189666748046875,-0.5392608642578125,0.536712646484375
-1.2760772705078125,-0.5407867431640625,0.5701904296875
-1.3339385986328125,-0.5486602783203125,0.594879150390625
-1.36529541015625,-0.5679779052734375,0.6392364501953125
-1.396881103515625,-0.5404052734375,0.7068023681640625
-1.420501708984375,-0.5316925048828125,0.755157470703125
-1.4658203125,-0.5352325439453125,0.81365966796875
-1.556671142578125,-0.5185546875,0.8959808349609375
-1.6257781982421875,-0.5079193115234375,0.9632415771484375
-1.6824188232421875,-0.4950714111328125,1.0280303955078125
-1.72998046875,-0.43524169921875,1.082427978515625
-1.7190704345703125,-0.3614349365234375,1.126312255859375
-1.6810150146484375,-0.378326416015625,1.1440582275390625
-1.6386566162109375,-0.377960205078125,1.113983154296875
-1.6098480224609375,-0.371185302734375,1.0893096923828125
-1.57513427734375,-0.365997314453125,1.020965576171875
-1.5767974853515625,-0.40386962890625,0.9057769775390625
-1.5399017333984375,-0.42657470703125,0.760498046875
-1.52069091796875,-0.4237823486328125,0.627349853515625
-1.482940673828125,-0.384735107421875,0.4892425537109375
-1.44903564453125,-0.382080078125,0.3409881591796875
-1.4394989013671875,-0.3904876708984375,0.1887969970703125
-1.4441070556640625,-0.387481689453125,0.0328369140625
-1.4580535888671875,-0.356964111328125,-0.13775634765625
-1.414764404296875,-0.3521270751953125,-0.30047607421875
-1.365081787109375,-0.4137725830078125,-0.4360504150390625
-1.3257904052734375,-0.4745025634765625,-0.5436248779296875
-1.2656402587890625,-0.5385894775390625,-0.619049072265625
-1.2220916748046875,-0.6087799072265625,-0.646484375
-1.1839447021484375,-0.6126861572265625,-0.6369476318359375
-1.1248779296875,-0.6157073974609375,-0.59320068359375
-1.065826416015625,-0.6606292724609375,-0.52288818359375
-1.0153656005859375,-0.6837615966796875,-0.4526214599609375
-0.984893798828125,-0.709991455078125,-0.3656158447265625
-0.929534912109375,-0.7400054931640625,-0.26544189453125
-0.8642730712890625,-0.760955810546875,-0.177001953125
-0.804931640625,-0.7603759765625,-0.044586181640625
-0.7139434814453125,-0.733123779296875,0.0795135498046875
-0.6060638427734375,-0.7512359619140625,0.1360015869140625
-0.5220794677734375,-0.76300048828125,0.2168731689453125
-0.4386444091796875,-0.734771728515625,0.29791259765625
-0.3726043701171875,-0.69146728515625,0.341705322265625
-0.326324462890625,-0.669281005859375,0.3785858154296875
-0.2894439697265625,-0.64630126953125,0.405242919921875
-0.2642364501953125,-0.612213134765625,0.45135498046875
-0.25543212890625,-0.5576934814453125,0.50543212890625
-0.2448577880859375,-0.4992828369140625,0.5466156005859375
-0.2034912109375,-0.461944580078125,0.5886688232421875
-0.1827545166015625,-0.406036376953125,0.6414337158203125
-0.198883056640625,-0.3396759033203125,0.7137451171875
-0.19677734375,-0.2778778076171875,0.7845001220703125
-0.2141571044921875,-0.2471923828125,0.844757080078125
-0.2415924072265625,-0.219879150390625,0.8919677734375
-0.2635650634765625,-0.1829681396484375,0.921783447265625
-0.2823333740234375,-0.1578521728515625,0.9655303955078125
-0.29730224609375,-0.1366119384765625,1.011505126953125
-0.315155029296875,-0.1078643798828125,1.0860137939453125
-0.3307037353515625,-0.0818328857421875,1.1541900634765625
-0.34527587890625,-0.0895843505859375,1.208740234375
-0.357513427734375,-0.0933990478515625,1.2587738037109375
-0.3714599609375,-0.0972442626953125,1.2755126953125
-0.391510009765625,-0.13128662109375,1.2758331298828125
-0.4069366455078125,-0.1557769775390625,1.256622314453125
-0.417694091796875,-0.20294189453125,1.2115325927734375
-0.44757080078125,-0.25958251953125,1.1614227294921875
-0.4585723876953125,-0.2907257080078125,1.09063720703125
-0.45556640625,-0.367919921875,1.011199951171875
-0.4675445556640625,-0.453887939453125,0.9304656982421875
-0.4769134521484375,-0.5028533935546875,0.8494873046875
-0.4927978515625,-0.5586700439453125,0.7580718994140625
-0.5196380615234375,-0.6110992431640625,0.65606689453125
-0.5681610107421875,-0.6596527099609375,0.5485382080078125
-0.6075286865234375,-0.686737060546875,0.4320220947265625
-0.63787841796875,-0.7565460205078125,0.2938995361328125
-0.6693267822265625,-0.831451416015625,0.1613922119140625
-0.692901611328125,-0.853485107421875,0.0456085205078125
-0.72412109375,-0.887298583984375,-0.0666351318359375
-0.7733154296875,-0.918182373046875,-0.1783294677734375
-0.8220062255859375,-0.9471588134765625,-0.2735748291015625
-0.86175537109375,-0.9954376220703125,-0.369110107421875
-0.8912200927734375,-1.042205810546875,-0.450592041015625
-0.9068450927734375,-1.082366943359375,-0.525543212890625
-0.8939971923828125,-1.1014556884765625,-0.5988922119140625
-0.85888671875,-1.0939178466796875,-0.643280029296875
-0.8298187255859375,-1.0971527099609375,-0.6649322509765625
-0.7929534912109375,-1.0829010009765625,-0.6478271484375
-0.748748779296875,-1.0525970458984375,-0.5912322998046875
-0.717376708984375,-1.04962158203125,-0.531341552734375
-0.6903533935546875,-1.0328521728515625,-0.453582763671875
-0.6573944091796875,-1.009490966796875,-0.3574981689453125
-0.6191558837890625,-1.0105438232421875,-0.268280029296875
-0.599151611328125,-0.99517822265625,-0.176116943359375
-0.59796142578125,-0.978851318359375,-0.0841217041015625
-0.5904388427734375,-0.9393768310546875,0.008880615234375
-0.565032958984375,-0.9085845947265625,0.0797271728515625
-0.554931640625,-0.8845672607421875,0.1539154052734375
-0.5236663818359375,-0.8171539306640625,0.21600341796875
-0.4929351806640625,-0.769500732421875,0.2656707763671875
-0.4827423095703125,-0.721160888671875,0.3413543701171875
-0.4563751220703125,-0.66943359375,0.3957061767578125
-0.4375457763671875,-0.6124114990234375,0.4234619140625
-0.4443206787109375,-0.5556793212890625,0.4322967529296875
-0.4191741943359375,-0.5159912109375,0.4505615234375
-0.38677978515625,-0.4798431396484375,0.426971435546875
-0.3641357421875,-0.4434356689453125,0.4227752685546875
-0.347686767578125,-0.40185546875,0.463104248046875
-0.3335723876953125,-0.3574981689453125,0.4844207763671875
-0.32183837890625,-0.30792236328125,0.510528564453125
-0.33209228515625,-0.282196044921875,0.5721435546875
-0.3290863037109375,-0.2642669677734375,0.619140625
-0.3261566162109375,-0.2641448974609375,0.63092041015625
-0.3397979736328125,-0.25628662109375,0.6475067138671875
-0.3385467529296875,-0.2414703369140625,0.67144775390625
-0.3192138671875,-0.23748779296875,0.670989990234375
-0.325927734375,-0.2313079833984375,0.6781463623046875
-0.33148193359375,-0.21258544921875,0.69866943359375
-0.3263092041015625,-0.1944427490234375,0.7344818115234375
-0.32965087890625,-0.189727783203125,0.7603912353515625
-0.3428192138671875,-0.1931304931640625,0.7872314453125
-0.351470947265625,-0.1830596923828125,0.820953369140625
-0.3641510009765625,-0.1699676513671875,0.818267822265625
-0.3846435546875,-0.1577911376953125,0.8056182861328125
-0.395477294921875,-0.1363372802734375,0.7820892333984375
-0.4164886474609375,-0.11944580078125,0.7654876708984375
-0.425933837890625,-0.104888916015625,0.781158447265625
-0.44140625,-0.110748291015625,0.8226318359375
-0.4512939453125,-0.0970458984375,0.8569793701171875
-0.457427978515625,-0.1029052734375,0.8932647705078125
-0.4513397216796875,-0.1306915283203125,0.92999267578125
-0.4442596435546875,-0.149505615234375,0.9561309814453125
-0.4583282470703125,-0.164642333984375,0.992919921875
-0.4479522705078125,-0.158233642578125,1.023712158203125
-0.4451904296875,-0.1782989501953125,1.04132080078125
-0.467437744140625,-0.15899658203125,1.087371826171875
-0.4693450927734375,-0.114990234375,1.1028594970703125
-0.4701385498046875,-0.1318206787109375,1.1092529296875
-0.4763641357421875,-0.1611785888671875,1.1063079833984375
-0.4881591796875,-0.1859283447265625,1.103271484375
-0.5118560791015625,-0.22216796875,1.1065826416015625
-0.5340423583984375,-0.2456207275390625,1.1174163818359375
-0.6017303466796875,-0.2658843994140625,1.148345947265625
-0.6834716796875,-0.2829437255859375,1.1809844970703125
-0.7613525390625,-0.2980804443359375,1.21343994140625
-0.8407135009765625,-0.31988525390625,1.23779296875
-0.927215576171875,-0.3661041259765625,1.2616729736328125
-1.0133514404296875,-0.4123687744140625,1.2961578369140625
-1.102691650390625,-0.4630889892578125,1.3075408935546875
-1.1883544921875,-0.5155181884765625,1.30743408203125
-1.2662811279296875,-0.563720703125,1.283294677734375
-1.3452301025390625,-0.6188507080078125,1.233734130859375
-1.429656982421875,-0.638336181640625,1.1818084716796875
-1.429656982421875,-0.638336181640625,1.1818084716796875
-1.4615478515625,-0.6607666015625,1.03192138671875
-1.4615478515625,-0.6607666015625,1.03192138671875
-1.4374542236328125,-0.6849212646484375,0.9267578125
-1.4374542236328125,-0.6849212646484375,0.9267578125
-1.4125823974609375,-0.685516357421875,0.8865203857421875
-1.3906707763671875,-0.673858642578125,0.8394775390625
-1.3472747802734375,-0.6635284423828125,0.7923126220703125
-1.2805328369140625,-0.64788818359375,0.757110595703125
-1.2279510498046875,-0.6204376220703125,0.7160491943359375
-1.1691741943359375,-0.577728271484375,0.676513671875
-1.0845489501953125,-0.5102081298828125,0.6412811279296875
-1.01708984375,-0.4419708251953125,0.601776123046875
-0.92608642578125,-0.39678955078125,0.5716552734375
-0.8164520263671875,-0.3447418212890625,0.5381622314453125
-0.70196533203125,-0.269989013671875,0.513214111328125
-0.553985595703125,-0.1827392578125,0.4779205322265625
-0.40277099609375,-0.1233978271484375,0.4505462646484375
-0.2358856201171875,-0.07257080078125,0.4186553955078125
-0.0939788818359375,-0.0206451416015625,0.354736328125
-0.0599212646484375,-0.0042724609375,0.2276458740234375
-0.0235748291015625,-0.007110595703125,0.1737060546875
0.0986175537109375,0.0307464599609375,0.151153564453125
0.186279296875,0.0178375244140625,0.082275390625
0.2705230712890625,0.0154571533203125,0.0352630615234375
0.3687591552734375,0.047088623046875,0.035919189453125
0.454315185546875,0.03802490234375,0.0482940673828125
0.5108795166015625,0.038116455078125,0.079193115234375
0.545745849609375,0.05120849609375,0.1253662109375
0.528533935546875,0.0379486083984375,0.1651153564453125
0.4996185302734375,0.009429931640625,0.199249267578125
0.4446258544921875,0.0135650634765625,0.2268218994140625
0.3803253173828125,0.015594482421875,0.24322509765625
0.314178466796875,-0.019561767578125,0.2491607666015625
0.2277374267578125,-0.0222320556640625,0.2545013427734375
0.133087158203125,-0.0536041259765625,0.2702178955078125
0.0399932861328125,-0.095916748046875,0.30474853515625
-0.0697479248046875,-0.1110992431640625,0.37835693359375
-0.1629638671875,-0.1390533447265625,0.48638916015625
-0.25164794921875,-0.156951904296875,0.5904541015625
-0.3661041259765625,-0.17926025390625,0.7279815673828125
-0.457244873046875,-0.185394287109375,0.881561279296875
-0.5381622314453125,-0.2298126220703125,0.9952239990234375
-0.6209564208984375,-0.2869873046875,1.098724365234375
-0.7429962158203125,-0.3095703125,1.199066162109375
-0.890380859375,-0.3490447998046875,1.32025146484375
-1.0244140625,-0.37615966796875,1.43988037109375
-1.16351318359375,-0.401947021484375,1.5390472412109375
-1.2727508544921875,-0.432952880859375,1.6312408447265625
-1.3278045654296875,-0.46466064453125,1.685211181640625
-1.3736572265625,-0.444091796875,1.741302490234375
-1.3957061767578125,-0.439453125,1.785736083984375
-1.4245147705078125,-0.4473419189453125,1.7975311279296875
-1.4860992431640625,-0.459686279296875,1.79827880859375
-1.5389404296875,-0.4790496826171875,1.7834320068359375
-1.578216552734375,-0.4847412109375,1.741485595703125
-1.6080780029296875,-0.4728240966796875,1.6663818359375
-1.5899200439453125,-0.480224609375,1.562744140625
-1.551513671875,-0.482696533203125,1.4620819091796875
-1.4810028076171875,-0.4409027099609375,1.3565521240234375
-1.3693389892578125,-0.39495849609375,1.2508087158203125
-1.246490478515625,-0.3760986328125,1.1438140869140625
-1.104888916015625,-0.35308837890625,1.03314208984375
-0.990570068359375,-0.3125,0.9446868896484375
-0.8621063232421875,-0.2743072509765625,0.8558197021484375
-0.762603759765625,-0.250823974609375,0.7454833984375
-0.7119293212890625,-0.17669677734375,0.62713623046875
-0.6403350830078125,-0.134490966796875,0.5206756591796875
-0.540069580078125,-0.0923309326171875,0.402069091796875
-0.4171905517578125,-0.0493621826171875,0.3058013916015625
-0.27606201171875,-0.016937255859375,0.2368316650390625
-0.14227294921875,0.0181121826171875,0.1825714111328125
0.004608154296875,0.0247802734375,0.177001953125
0.1508941650390625,-0.01434326171875,0.203125
0.22454833984375,-0.037261962890625,0.2252349853515625
0.2428741455078125,-0.0505828857421875,0.2564697265625
0.2383270263671875,-0.0686798095703125,0.2575836181640625
0.2051239013671875,-0.0928192138671875,0.262939453125
0.181640625,-0.113128662109375,0.3090667724609375
0.167877197265625,-0.1287994384765625,0.35638427734375
0.168121337890625,-0.1460418701171875,0.415863037109375
0.1788177490234375,-0.1707916259765625,0.4901123046875
0.188629150390625,-0.166229248046875,0.577301025390625
0.18585205078125,-0.1912841796875,0.6824188232421875
0.1720428466796875,-0.2231292724609375,0.802825927734375
0.1380157470703125,-0.2525482177734375,0.908782958984375
0.071441650390625,-0.304168701171875,0.9829254150390625
-0.0237579345703125,-0.33587646484375,1.0520782470703125
-0.12310791015625,-0.3611907958984375,1.095550537109375
-0.2146453857421875,-0.4127044677734375,1.1473541259765625
-0.2744293212890625,-0.4488067626953125,1.188446044921875
-0.3131866455078125,-0.4755401611328125,1.200408935546875
-0.335662841796875,-0.5371551513671875,1.1897430419921875
-0.3623199462890625,-0.588409423828125,1.1773529052734375
-0.4003143310546875,-0.6394195556640625,1.1540069580078125
-0.462249755859375,-0.67694091796875,1.1383056640625
-0.521453857421875,-0.7211151123046875,1.0993499755859375
-0.58770751953125,-0.787506103515625,1.041534423828125
-0.649749755859375,-0.8540802001953125,0.953643798828125
-0.67889404296875,-0.941680908203125,0.870025634765625
-0.70458984375,-1.04083251953125,0.76068115234375
-0.767486572265625,-1.0907745361328125,0.6521759033203125
-0.8085784912109375,-1.127044677734375,0.541473388671875
-0.8349456787109375,-1.1939544677734375,0.414306640625
-0.8577880859375,-1.22735595703125,0.2976531982421875
-0.864593505859375,-1.23260498046875,0.1746063232421875
-0.881011962890625,-1.249603271484375,0.04266357421875
-0.89447021484375,-1.2085723876953125,-0.0711212158203125
-0.916046142578125,-1.1647186279296875,-0.191314697265625
-0.9263763427734375,-1.115142822265625,-0.304718017578125
-0.8965301513671875,-1.057769775390625,-0.34637451171875
-0.8560943603515625,-0.993560791015625,-0.36492919921875
-0.798675537109375,-0.9228668212890625,-0.3590240478515625
-0.7279510498046875,-0.8487548828125,-0.338775634765625
-0.6228179931640625,-0.779205322265625,-0.2875213623046875
-0.5110015869140625,-0.712066650390625,-0.2380218505859375
-0.4138031005859375,-0.651519775390625,-0.187286376953125
-0.310943603515625,-0.613067626953125,-0.1342620849609375
-0.2104034423828125,-0.582977294921875,-0.086273193359375
-0.145294189453125,-0.5291900634765625,-0.022705078125
-0.0764617919921875,-0.451202392578125,0.047027587890625
-0.004730224609375,-0.3782196044921875,0.103851318359375
0.064117431640625,-0.3219146728515625,0.1689605712890625
0.1110076904296875,-0.252532958984375,0.28350830078125
0.1568145751953125,-0.1813201904296875,0.3803863525390625
0.1897125244140625,-0.1401214599609375,0.4555511474609375
0.2113494873046875,-0.1143646240234375,0.5287322998046875
0.2207183837890625,-0.0743865966796875,0.5683746337890625
0.214141845703125,-0.0498199462890625,0.5948028564453125
0.209686279296875,-0.0180816650390625,0.622772216796875
0.19329833984375,0.0194549560546875,0.68438720703125
0.173797607421875,0.0767822265625,0.7837371826171875
0.153717041015625,0.095947265625,0.8016510009765625
0.1444549560546875,0.112091064453125,0.844146728515625
0.1263427734375,0.14337158203125,0.9090423583984375
0.11431884765625,0.1566162109375,0.9592132568359375
0.0946197509765625,0.1419525146484375,0.9619140625
0.0650634765625,0.13360595703125,0.9677886962890625
0.0353546142578125,0.123626708984375,1.000335693359375
0.0221405029296875,0.104827880859375,1.0558013916015625
-0.0102081298828125,0.101470947265625,1.1178741455078125
-0.06103515625,0.1051177978515625,1.152984619140625
-0.094818115234375,0.079986572265625,1.2114410400390625
-0.1161651611328125,0.07305908203125,1.2933197021484375
-0.1413116455078125,0.0555419921875,1.356475830078125
-0.1755828857421875,0.0437164306640625,1.4008331298828125
-0.22674560546875,0.055572509765625,1.47589111328125
-0.274993896484375,0.0409698486328125,1.55352783203125
-0.3510589599609375,0.0210418701171875,1.6323089599609375
-0.4322357177734375,0.0105133056640625,1.7157745361328125
-0.5193328857421875,-0.008392333984375,1.773345947265625
-0.6182861328125,-0.032257080078125,1.803955078125
-0.729278564453125,-0.085205078125,1.819488525390625
-0.862884521484375,-0.0933990478515625,1.82086181640625
-0.9607391357421875,-0.12066650390625,1.8179473876953125
-1.027069091796875,-0.1782379150390625,1.8194732666015625
-1.0861968994140625,-0.1924896240234375,1.813690185546875
-1.1142730712890625,-0.22845458984375,1.7841339111328125
-1.1215057373046875,-0.2353973388671875,1.71490478515625
-1.130157470703125,-0.238433837890625,1.6167144775390625
-1.118499755859375,-0.281097412109375,1.5170135498046875
-1.0972900390625,-0.30963134765625,1.3958892822265625
-1.073211669921875,-0.33294677734375,1.2733612060546875
-1.03790283203125,-0.3553619384765625,1.1610870361328125
-0.99676513671875,-0.3409576416015625,1.043365478515625
-0.9356231689453125,-0.2632598876953125,0.9235382080078125
-0.793304443359375,-0.2501983642578125,0.8050689697265625
-0.6392059326171875,-0.2407379150390625,0.711822509765625
-0.5115509033203125,-0.18536376953125,0.6085205078125
-0.39068603515625,-0.1792144775390625,0.518035888671875
-0.2930450439453125,-0.195220947265625,0.4352569580078125
-0.2418060302734375,-0.1962432861328125,0.325286865234375
-0.2168121337890625,-0.2061614990234375,0.2183990478515625
-0.1704559326171875,-0.2108306884765625,0.125335693359375
-0.1041107177734375,-0.229644775390625,0.03338623046875
-0.019378662109375,-0.24346923828125,-0.0738372802734375
0.0821533203125,-0.2468719482421875,-0.149200439453125
0.1800079345703125,-0.2515411376953125,-0.1900177001953125
0.254180908203125,-0.2551727294921875,-0.1763458251953125
0.2890472412109375,-0.2178192138671875,-0.1378021240234375
0.2826080322265625,-0.19207763671875,-0.0903167724609375
0.255889892578125,-0.1878814697265625,-0.06304931640625
0.218353271484375,-0.208892822265625,-0.0275115966796875
0.1778106689453125,-0.1999053955078125,0.0321502685546875
0.127593994140625,-0.1828460693359375,0.077728271484375
0.091888427734375,-0.17730712890625,0.114990234375
0.0494537353515625,-0.199951171875,0.18701171875
-0.005340576171875,-0.1605224609375,0.25830078125
-0.068145751953125,-0.119415283203125,0.3287811279296875
-0.1454925537109375,-0.108642578125,0.4292755126953125
-0.2217254638671875,-0.0667877197265625,0.6002349853515625
-0.27972412109375,-0.0465850830078125,0.7133026123046875
-0.3550872802734375,-0.03729248046875,0.8349761962890625
-0.431549072265625,-0.0153350830078125,0.9293365478515625
-0.4632110595703125,-0.02117919921875,1.058349609375
-0.5125579833984375,-0.0176544189453125,1.210296630859375
-0.5669403076171875,-0.0093231201171875,1.3107452392578125
-0.631256103515625,-0.0312652587890625,1.4377593994140625
-0.7016448974609375,-0.01214599609375,1.570770263671875
-0.7771148681640625,-0.004913330078125,1.70562744140625
-0.85345458984375,-0.0018157958984375,1.81597900390625
-0.914520263671875,0.003265380859375,1.9049072265625
-0.96563720703125,-0.0004425048828125,1.9930419921875
-1.013427734375,0.0574493408203125,2.05914306640625
-1.0436248779296875,0.0879058837890625,2.092132568359375
-1.0467376708984375,0.0746612548828125,2.1001434326171875
-1.0468597412109375,0.1046295166015625,2.0932159423828125
-1.0560302734375,0.09381103515625,2.0561676025390625
-1.0504302978515625,0.0864410400390625,1.9941558837890625
-1.0347137451171875,0.0599365234375,1.9112548828125
-1.0082855224609375,0.04046630859375,1.8063507080078125
-0.969512939453125,0.0338134765625,1.7033233642578125
-0.935516357421875,0.0376129150390625,1.6095733642578125
-0.935516357421875,0.0376129150390625,1.6095733642578125
-0.795013427734375,0.0385894775390625,1.41876220703125
-0.795013427734375,0.0385894775390625,1.41876220703125
-0.6267242431640625,0.00830078125,1.2696075439453125
-0.6267242431640625,0.00830078125,1.2696075439453125
-0.589599609375,-0.020111083984375,1.1933135986328125
-0.5561981201171875,-0.0310211181640625,1.1134033203125
-0.5218505859375,-0.06134033203125,1.0611419677734375
-0.4967041015625,-0.06256103515625,1.006378173828125
-0.475860595703125,-0.0763397216796875,0.9644927978515625
-0.4039459228515625,-0.080841064453125,0.9227447509765625
-0.329498291015625,-0.066253662109375,0.878265380859375
-0.2249755859375,-0.061126708984375,0.84796142578125
-0.1132965087890625,-0.0761566162109375,0.820556640625
-0.0060272216796875,-0.0804901123046875,0.800079345703125
0.0672760009765625,-0.0868377685546875,0.7648773193359375
0.0273590087890625,-0.108978271484375,0.6905059814453125
0.0023651123046875,-0.120880126953125,0.654022216796875
0.0034637451171875,-0.140655517578125,0.6469573974609375
-0.0120849609375,-0.1540985107421875,0.601318359375
0.029205322265625,-0.145050048828125,0.552459716796875
0.1067047119140625,-0.1342926025390625,0.520263671875
0.1893768310546875,-0.1204681396484375,0.496673583984375
0.2634429931640625,-0.0933837890625,0.4758758544921875
0.33917236328125,-0.1216583251953125,0.46856689453125
0.354034423828125,-0.143829345703125,0.4460601806640625
0.315643310546875,-0.1605377197265625,0.405059814453125
0.249359130859375,-0.1934661865234375,0.3648681640625
0.21099853515625,-0.22418212890625,0.321929931640625
0.199310302734375,-0.2562713623046875,0.2828369140625
0.2053070068359375,-0.248931884765625,0.2502593994140625
0.2543182373046875,-0.2422943115234375,0.22418212890625
0.3386993408203125,-0.209716796875,0.1923980712890625
0.44970703125,-0.189208984375,0.14727783203125
0.5293731689453125,-0.2074127197265625,0.0839996337890625
0.5048675537109375,-0.211181640625,-0.030181884765625
0.371490478515625,-0.2203521728515625,-0.0932464599609375
0.2381134033203125,-0.2472076416015625,-0.1709442138671875
0.111083984375,-0.3162384033203125,-0.268646240234375
0.016143798828125,-0.3304595947265625,-0.3043975830078125
-0.00640869140625,-0.283905029296875,-0.337738037109375
-0.018829345703125,-0.226165771484375,-0.3209228515625
-0.0318756103515625,-0.14727783203125,-0.2632598876953125
-0.049530029296875,-0.1101531982421875,-0.271575927734375
-0.1314239501953125,-0.193511962890625,-0.2730712890625
-0.269866943359375,-0.2650604248046875,-0.2308349609375
-0.373992919921875,-0.322967529296875,-0.2312774658203125
-0.464569091796875,-0.3964996337890625,-0.19097900390625
-0.5547027587890625,-0.4471435546875,-0.0772247314453125
-0.6184539794921875,-0.472259521484375,-0.0096588134765625
-0.6912994384765625,-0.398406982421875,0.090057373046875
-0.74444580078125,-0.3299560546875,0.264495849609375
-0.857025146484375,-0.4210052490234375,0.4157867431640625
-0.964202880859375,-0.46929931640625,0.5724334716796875
-1.063232421875,-0.4425048828125,0.6801300048828125
-1.2009735107421875,-0.4927825927734375,0.6881256103515625
-1.34661865234375,-0.536834716796875,0.733551025390625
-1.4759674072265625,-0.592559814453125,0.75189208984375
-1.63720703125,-0.6591949462890625,0.7261199951171875
-1.75177001953125,-0.6495361328125,0.715118408203125
-1.779144287109375,-0.6426544189453125,0.693389892578125
-1.6872100830078125,-0.7064056396484375,0.6290740966796875
-1.5885162353515625,-0.7058258056640625,0.56805419921875
-1.4358673095703125,-0.6685791015625,0.4733428955078125
-1.37677001953125,-0.6524810791015625,0.4047393798828125
-1.43548583984375,-0.614990234375,0.340179443359375
-1.5016632080078125,-0.5831146240234375,0.2403106689453125
-1.4888763427734375,-0.6006622314453125,0.163543701171875
-1.398681640625,-0.6106414794921875,0.076263427734375
-1.3518524169921875,-0.5552215576171875,-0.063232421875
-1.3284454345703125,-0.51544189453125,-0.1903076171875
-1.180145263671875,-0.5789794921875,-0.3145599365234375
-0.998199462890625,-0.5709381103515625,-0.40521240234375
-0.8686981201171875,-0.501983642578125,-0.4389495849609375
-0.7315216064453125,-0.453338623046875,-0.4833221435546875
-0.5983123779296875,-0.4340667724609375,-0.549041748046875
-0.52227783203125,-0.40399169921875,-0.575286865234375
-0.479583740234375,-0.339111328125,-0.5592498779296875
