Acceleration_X,Acceleration_Y,Acceleration_Z
-0.129638671875,-0.9363555908203125,-0.4329681396484375
-0.1658935546875,-0.9263153076171875,-0.38800048828125
-0.1964263916015625,-0.8942108154296875,-0.3329315185546875
-0.2296142578125,-0.8871307373046875,-0.34136962890625
-0.258026123046875,-0.9072265625,-0.342010498046875
-0.2552032470703125,-0.9227142333984375,-0.323394775390625
-0.2438812255859375,-0.9240570068359375,-0.331268310546875
-0.2313690185546875,-0.9227294921875,-0.3526153564453125
-0.2159881591796875,-0.93121337890625,-0.3593597412109375
-0.20306396484375,-0.9322357177734375,-0.36077880859375
-0.1868438720703125,-0.917999267578125,-0.36798095703125
-0.1812286376953125,-0.91986083984375,-0.360809326171875
-0.1804351806640625,-0.9308013916015625,-0.3592529296875
-0.1883087158203125,-0.942230224609375,-0.35406494140625
-0.2050933837890625,-0.96197509765625,-0.3323822021484375
-0.2256927490234375,-0.974884033203125,-0.3236541748046875
-0.2234649658203125,-0.9850921630859375,-0.3268585205078125
-0.2093048095703125,-1.006439208984375,-0.3264617919921875
-0.184234619140625,-1.0118255615234375,-0.34503173828125
-0.160369873046875,-1.0194854736328125,-0.3741455078125
-0.1475830078125,-1.024078369140625,-0.404693603515625
-0.142974853515625,-1.0104827880859375,-0.4385986328125
-0.1400604248046875,-1.0115203857421875,-0.45111083984375
-0.1420440673828125,-1.0291290283203125,-0.4787750244140625
-0.162445068359375,-1.0292816162109375,-0.513092041015625
-0.1900787353515625,-1.0266265869140625,-0.5541229248046875
-0.18646240234375,-1.036285400390625,-0.5871124267578125
-0.1645355224609375,-1.04217529296875,-0.641571044921875
-0.139495849609375,-1.0464935302734375,-0.7096710205078125
-0.1302947998046875,-1.059814453125,-0.75653076171875
-0.1293792724609375,-1.0455169677734375,-0.7887725830078125
-0.1478424072265625,-1.01397705078125,-0.798828125
-0.1920013427734375,-0.97857666015625,-0.789825439453125
-0.22064208984375,-0.9546661376953125,-0.7817840576171875
-0.2295379638671875,-0.9393310546875,-0.756256103515625
-0.22344970703125,-0.9173431396484375,-0.71881103515625
-0.2170562744140625,-0.892852783203125,-0.6849365234375
-0.2115020751953125,-0.864959716796875,-0.657684326171875
-0.205352783203125,-0.830535888671875,-0.6305694580078125
-0.2001495361328125,-0.801055908203125,-0.5872344970703125
-0.2039947509765625,-0.7902069091796875,-0.5314788818359375
-0.218719482421875,-0.8013153076171875,-0.4921112060546875
-0.211395263671875,-0.804107666015625,-0.438507080078125
-0.2107391357421875,-0.78277587890625,-0.3808746337890625
-0.2196502685546875,-0.76422119140625,-0.312713623046875
-0.22076416015625,-0.7451019287109375,-0.2451324462890625
-0.2143707275390625,-0.7226715087890625,-0.193023681640625
-0.2168731689453125,-0.6904144287109375,-0.1380615234375
-0.20843505859375,-0.644775390625,-0.07452392578125
-0.19537353515625,-0.6120147705078125,-0.0259857177734375
-0.194122314453125,-0.5898284912109375,-0.0020294189453125
-0.1985931396484375,-0.5747833251953125,0.05987548828125
-0.1986083984375,-0.5628509521484375,0.1509246826171875
-0.1959075927734375,-0.557464599609375,0.2135772705078125
-0.198455810546875,-0.5526885986328125,0.271514892578125
-0.2047271728515625,-0.5276336669921875,0.32122802734375
-0.2149505615234375,-0.5050506591796875,0.39581298828125
-0.217742919921875,-0.4861602783203125,0.4824981689453125
-0.2283782958984375,-0.479766845703125,0.549713134765625
-0.2623443603515625,-0.48358154296875,0.6103668212890625
-0.29364013671875,-0.481475830078125,0.6703033447265625
-0.30804443359375,-0.4513092041015625,0.73748779296875
-0.307403564453125,-0.41766357421875,0.8179473876953125
-0.2904205322265625,-0.45098876953125,0.9152374267578125
-0.261199951171875,-0.5104522705078125,0.9983673095703125
-0.248870849609375,-0.5037078857421875,1.0731658935546875
-0.2464447021484375,-0.469818115234375,1.1726531982421875
-0.2474365234375,-0.4597625732421875,1.2309417724609375
-0.2492828369140625,-0.477783203125,1.257598876953125
-0.24920654296875,-0.521148681640625,1.27459716796875
-0.255950927734375,-0.573028564453125,1.2708892822265625
-0.2574310302734375,-0.591400146484375,1.2513427734375
-0.263214111328125,-0.58331298828125,1.2367401123046875
-0.26416015625,-0.570587158203125,1.2075653076171875
-0.258087158203125,-0.5430755615234375,1.1592864990234375
-0.2436676025390625,-0.531524658203125,1.107635498046875
-0.2375640869140625,-0.5808868408203125,1.0447235107421875
-0.2155914306640625,-0.60516357421875,0.9915618896484375
-0.1969451904296875,-0.6168365478515625,0.929595947265625
-0.191864013671875,-0.6510162353515625,0.8302154541015625
-0.2000732421875,-0.679351806640625,0.7343292236328125
-0.20635986328125,-0.6900177001953125,0.6353759765625
-0.20941162109375,-0.70758056640625,0.5438385009765625
-0.2046966552734375,-0.70257568359375,0.4824676513671875
-0.22015380859375,-0.6913909912109375,0.440826416015625
-0.2244873046875,-0.675445556640625,0.3915863037109375
-0.2346343994140625,-0.69293212890625,0.318634033203125
-0.2306060791015625,-0.750701904296875,0.240325927734375
-0.2073516845703125,-0.8283538818359375,0.177337646484375
-0.1999969482421875,-0.8724365234375,0.1388092041015625
-0.2032318115234375,-0.8730316162109375,0.0904083251953125
-0.22265625,-0.8760223388671875,0.038238525390625
-0.244873046875,-0.8829193115234375,0.0203857421875
-0.2636566162109375,-0.862213134765625,0.0171356201171875
-0.267730712890625,-0.8385162353515625,-0.010162353515625
-0.2527923583984375,-0.8726043701171875,-0.05718994140625
-0.2391815185546875,-0.91375732421875,-0.09356689453125
-0.2401123046875,-0.9046783447265625,-0.148406982421875
-0.2228546142578125,-0.88665771484375,-0.21282958984375
-0.220672607421875,-0.8853912353515625,-0.287200927734375
-0.2303466796875,-0.897979736328125,-0.34710693359375
-0.250823974609375,-0.888031005859375,-0.418701171875
-0.2884521484375,-0.8911285400390625,-0.462860107421875
-0.3112640380859375,-0.910980224609375,-0.4870147705078125
-0.3195953369140625,-0.93670654296875,-0.5260162353515625
-0.3404541015625,-0.946441650390625,-0.54888916015625
-0.3553009033203125,-0.9069976806640625,-0.547698974609375
-0.365234375,-0.870758056640625,-0.5432586669921875
-0.4064788818359375,-0.880645751953125,-0.535247802734375
-0.4443817138671875,-0.8845062255859375,-0.5065765380859375
-0.4667816162109375,-0.893646240234375,-0.4980316162109375
-0.509246826171875,-0.9358673095703125,-0.4550018310546875
-0.5539093017578125,-0.9749908447265625,-0.405914306640625
-0.594268798828125,-0.9839935302734375,-0.3739166259765625
-0.631683349609375,-0.9830322265625,-0.3209991455078125
-0.66119384765625,-0.9566802978515625,-0.285064697265625
-0.70941162109375,-0.912811279296875,-0.26336669921875
-0.7569732666015625,-0.88739013671875,-0.20849609375
-0.8008270263671875,-0.8839874267578125,-0.17279052734375
-0.8424224853515625,-0.906097412109375,-0.147125244140625
-0.871917724609375,-0.9335479736328125,-0.1169281005859375
-0.90631103515625,-0.9373626708984375,-0.1087799072265625
-0.9283905029296875,-0.9090423583984375,-0.1252593994140625
-0.943511962890625,-0.8449249267578125,-0.13665771484375
-0.9680633544921875,-0.811920166015625,-0.1111602783203125
-0.976837158203125,-0.8109588623046875,-0.084503173828125
-0.97540283203125,-0.805145263671875,-0.051300048828125
-0.9992523193359375,-0.7850494384765625,0.020111083984375
-1.0136566162109375,-0.7642669677734375,0.07415771484375
-1.0272979736328125,-0.7599945068359375,0.12786865234375
-1.0272979736328125,-0.7599945068359375,0.12786865234375
-1.0149993896484375,-0.7058868408203125,0.2004241943359375
-0.996551513671875,-0.640350341796875,0.2220306396484375
-0.996551513671875,-0.640350341796875,0.2220306396484375
-0.978240966796875,-0.56597900390625,0.267913818359375
-0.949066162109375,-0.52191162109375,0.3508453369140625
-0.949066162109375,-0.52191162109375,0.3508453369140625
-0.9844970703125,-0.48712158203125,0.4425201416015625
-0.9844970703125,-0.48712158203125,0.4425201416015625
-0.9866790771484375,-0.4910430908203125,0.4877166748046875
-0.9866790771484375,-0.4910430908203125,0.4877166748046875
-0.970794677734375,-0.475494384765625,0.4974517822265625
-0.9435272216796875,-0.4327392578125,0.52093505859375
-0.917327880859375,-0.42437744140625,0.5358734130859375
-0.906005859375,-0.4764556884765625,0.5531005859375
-0.923004150390625,-0.5140838623046875,0.5883331298828125
-0.9500579833984375,-0.5047149658203125,0.5943145751953125
-0.9977264404296875,-0.5496978759765625,0.5822601318359375
-1.0548248291015625,-0.6385040283203125,0.565521240234375
-1.131988525390625,-0.689788818359375,0.519805908203125
-1.196929931640625,-0.7003936767578125,0.51458740234375
-1.24920654296875,-0.7601776123046875,0.461151123046875
-1.3342742919921875,-0.8216552734375,0.43316650390625
-1.4099578857421875,-0.8653106689453125,0.404022216796875
-1.4617767333984375,-0.9022064208984375,0.3673553466796875
-1.4843902587890625,-0.940032958984375,0.3108062744140625
-1.4976806640625,-0.959625244140625,0.2520751953125
-1.4956817626953125,-0.980865478515625,0.2103729248046875
-1.4952545166015625,-1.0294647216796875,0.1674652099609375
-1.5047454833984375,-1.071380615234375,0.1514892578125
-1.4926605224609375,-1.06298828125,0.1285400390625
-1.4535064697265625,-1.034271240234375,0.1074371337890625
-1.407470703125,-1.054351806640625,0.102752685546875
-1.338653564453125,-1.0691375732421875,0.0816802978515625
-1.2456207275390625,-1.050445556640625,0.052520751953125
-1.1589508056640625,-1.022216796875,0.05535888671875
-1.0894622802734375,-0.995025634765625,0.087249755859375
-1.0172119140625,-0.9560546875,0.1048736572265625
-0.9441680908203125,-0.9271697998046875,0.130950927734375
-0.8764495849609375,-0.9005279541015625,0.1805877685546875
-0.8020477294921875,-0.8639068603515625,0.1927947998046875
-0.733734130859375,-0.81439208984375,0.19708251953125
-0.64471435546875,-0.7374725341796875,0.2200469970703125
-0.530181884765625,-0.676666259765625,0.2317352294921875
-0.419708251953125,-0.5908203125,0.22955322265625
-0.3091278076171875,-0.51483154296875,0.241424560546875
-0.2008056640625,-0.45025634765625,0.2223968505859375
-0.078094482421875,-0.3699493408203125,0.1639862060546875
0.0153350830078125,-0.3038787841796875,0.1032562255859375
0.0718231201171875,-0.25311279296875,0.0153045654296875
0.0970916748046875,-0.242645263671875,-0.0580596923828125
0.1453399658203125,-0.21783447265625,-0.0872955322265625
0.1667327880859375,-0.1807403564453125,-0.114105224609375
0.1845855712890625,-0.162078857421875,-0.1057891845703125
0.213836669921875,-0.110992431640625,-0.0914154052734375
0.274627685546875,-0.0476837158203125,-0.061920166015625
0.2955322265625,-0.0400848388671875,-0.0432891845703125
0.2942047119140625,-0.0511474609375,-0.033843994140625
0.2791900634765625,-0.0449066162109375,-0.0106658935546875
0.2515716552734375,-0.0198211669921875,0.027923583984375
0.234649658203125,-0.009124755859375,0.0079345703125
0.2147674560546875,-0.0495452880859375,-0.0045318603515625
0.185455322265625,-0.0905303955078125,0.0153961181640625
0.157684326171875,-0.0919647216796875,0.0474395751953125
0.14642333984375,-0.1047210693359375,0.081787109375
0.12255859375,-0.14959716796875,0.1288299560546875
0.0802001953125,-0.167510986328125,0.183624267578125
0.04144287109375,-0.1779327392578125,0.2245635986328125
0.012420654296875,-0.1694488525390625,0.248626708984375
-0.0834808349609375,-0.156585693359375,0.27398681640625
-0.1759796142578125,-0.2047119140625,0.2942352294921875
-0.264251708984375,-0.22601318359375,0.3005523681640625
-0.38629150390625,-0.2486572265625,0.3082427978515625
-0.487396240234375,-0.280181884765625,0.3380126953125
-0.564300537109375,-0.315643310546875,0.37335205078125
-0.6481781005859375,-0.3535919189453125,0.42657470703125
-0.6729583740234375,-0.3565521240234375,0.4979095458984375
-0.6858367919921875,-0.415191650390625,0.555511474609375
-0.7355804443359375,-0.424774169921875,0.5903472900390625
-0.81207275390625,-0.4332275390625,0.6586761474609375
-0.9069061279296875,-0.479156494140625,0.7039337158203125
-1.0403594970703125,-0.5496978759765625,0.7293243408203125
-1.19940185546875,-0.6112060546875,0.800872802734375
-1.3381195068359375,-0.6285858154296875,0.88482666015625
-1.4703826904296875,-0.6041259765625,1.0084075927734375
-1.5819244384765625,-0.5505523681640625,1.144287109375
-1.6416015625,-0.5761566162109375,1.2161865234375
-1.6755828857421875,-0.5939178466796875,1.26153564453125
-1.630035400390625,-0.5581512451171875,1.2931671142578125
-1.53546142578125,-0.5486907958984375,1.26129150390625
-1.5157928466796875,-0.54302978515625,1.1403350830078125
-1.569000244140625,-0.6042938232421875,1.0428619384765625
-1.58465576171875,-0.7025146484375,1.0084686279296875
-1.6422576904296875,-0.7020263671875,0.938140869140625
-1.5470123291015625,-0.4343414306640625,0.9277801513671875
-1.4210052490234375,-0.5478973388671875,0.8843994140625
-1.31640625,-0.502288818359375,0.8507232666015625
-1.1686859130859375,-0.3898773193359375,0.8677825927734375
-1.1890411376953125,-0.482940673828125,0.7687835693359375
-1.3447723388671875,-0.6003875732421875,0.6699371337890625
-1.3582611083984375,-0.6916046142578125,0.625457763671875
-1.4461212158203125,-0.840576171875,0.5053863525390625
-1.481414794921875,-0.7760467529296875,0.4663848876953125
-1.385467529296875,-0.6862640380859375,0.4006195068359375
-1.2960357666015625,-0.6912994384765625,0.33245849609375
-1.1391143798828125,-0.5942840576171875,0.250762939453125
-1.05279541015625,-0.7104949951171875,0.1495513916015625
-0.965545654296875,-0.70172119140625,0.014190673828125
-0.870758056640625,-0.706634521484375,-0.17022705078125
-0.77490234375,-0.7756500244140625,-0.295928955078125
-0.686004638671875,-0.7701568603515625,-0.322540283203125
-0.5793304443359375,-0.7194061279296875,-0.377044677734375
-0.4520416259765625,-0.6499481201171875,-0.3624725341796875
-0.282806396484375,-0.489410400390625,-0.29315185546875
-0.0964202880859375,-0.4339447021484375,-0.204376220703125
0.061676025390625,-0.457183837890625,-0.09222412109375
0.164794921875,-0.44586181640625,0.0194854736328125
0.2185211181640625,-0.4333038330078125,0.1498870849609375
0.2516021728515625,-0.4041595458984375,0.277496337890625
0.2524261474609375,-0.3570404052734375,0.4178466796875
0.2685394287109375,-0.299041748046875,0.53741455078125
0.2626190185546875,-0.2904052734375,0.6519622802734375
0.22308349609375,-0.2750701904296875,0.7828521728515625
0.16259765625,-0.209381103515625,0.914825439453125
0.096160888671875,-0.1412353515625,1.06402587890625
0.03631591796875,-0.0878753662109375,1.1865997314453125
-0.0296783447265625,-0.0508880615234375,1.287322998046875
-0.1052093505859375,0.0054931640625,1.3768157958984375
-0.1879119873046875,0.0167999267578125,1.4289398193359375
-0.2593994140625,0.009033203125,1.4652862548828125
-0.3199310302734375,-0.0052032470703125,1.482391357421875
-0.3663177490234375,-0.0467529296875,1.44427490234375
-0.4122161865234375,-0.0959625244140625,1.390777587890625
-0.4332427978515625,-0.1627960205078125,1.325897216796875
-0.458221435546875,-0.2574462890625,1.2385711669921875
-0.49163818359375,-0.342681884765625,1.1467437744140625
-0.5239410400390625,-0.4220123291015625,1.0381011962890625
-0.5606536865234375,-0.5230712890625,0.8938140869140625
-0.5996551513671875,-0.606170654296875,0.753509521484375
-0.6346282958984375,-0.68634033203125,0.5903472900390625
-0.654998779296875,-0.744781494140625,0.4228057861328125
-0.6765899658203125,-0.8231353759765625,0.2623748779296875
-0.72454833984375,-0.919647216796875,0.115020751953125
-0.7828369140625,-0.9474945068359375,0.013702392578125
-0.84893798828125,-0.9777374267578125,-0.0715179443359375
-0.9023284912109375,-1.0001678466796875,-0.1172332763671875
-0.9052581787109375,-0.9739837646484375,-0.1330413818359375
-0.873443603515625,-0.9346923828125,-0.12725830078125
-0.8167877197265625,-0.95263671875,-0.100067138671875
-0.746856689453125,-0.927215576171875,-0.049072265625
-0.667236328125,-0.859161376953125,0.0035858154296875
-0.6024322509765625,-0.8733978271484375,0.0496368408203125
-0.5886077880859375,-0.886962890625,0.08929443359375
-0.6047821044921875,-0.8805389404296875,0.147979736328125
-0.635162353515625,-0.8895111083984375,0.2122802734375
-0.670257568359375,-0.90435791015625,0.269195556640625
-0.685699462890625,-0.8920135498046875,0.3364105224609375
-0.675811767578125,-0.8853912353515625,0.390533447265625
-0.6691131591796875,-0.9056396484375,0.4353179931640625
-0.6569976806640625,-0.91815185546875,0.4589691162109375
-0.6585693359375,-0.9532623291015625,0.466552734375
-0.67657470703125,-0.9744873046875,0.4578399658203125
-0.6859588623046875,-0.9691314697265625,0.4573974609375
-0.6960601806640625,-0.987762451171875,0.460906982421875
-0.6951904296875,-0.9822998046875,0.4584808349609375
-0.6738433837890625,-0.9534149169921875,0.4485015869140625
-0.648284912109375,-0.9276885986328125,0.4332427978515625
-0.5968017578125,-0.871246337890625,0.4109039306640625
-0.5292816162109375,-0.828643798828125,0.372711181640625
-0.4642486572265625,-0.8077392578125,0.3218841552734375
-0.4053802490234375,-0.790863037109375,0.2737884521484375
-0.344451904296875,-0.7615966796875,0.2094573974609375
-0.294891357421875,-0.7497711181640625,0.1345062255859375
-0.2532806396484375,-0.72747802734375,0.095703125
-0.222625732421875,-0.6592254638671875,0.175323486328125
-0.202850341796875,-0.572357177734375,0.2093048095703125
-0.1724395751953125,-0.5484771728515625,0.1777496337890625
-0.15740966796875,-0.4938201904296875,0.234039306640625
-0.142913818359375,-0.4132080078125,0.2712860107421875
-0.1374053955078125,-0.394134521484375,0.3135986328125
-0.1300048828125,-0.3877716064453125,0.326629638671875
-0.1331634521484375,-0.36383056640625,0.3461456298828125
-0.14678955078125,-0.3379364013671875,0.372589111328125
-0.160888671875,-0.312652587890625,0.41162109375
-0.174407958984375,-0.28167724609375,0.4462738037109375
-0.1938629150390625,-0.246337890625,0.4909820556640625
-0.2131500244140625,-0.201873779296875,0.532958984375
-0.2459259033203125,-0.1682281494140625,0.5962371826171875
-0.2691802978515625,-0.12518310546875,0.65667724609375
-0.286376953125,-0.0745086669921875,0.7087554931640625
-0.3004302978515625,-0.0397796630859375,0.759307861328125
-0.2892303466796875,-0.0349884033203125,0.810577392578125
-0.279296875,-0.03997802734375,0.812774658203125
-0.2793426513671875,-0.0343170166015625,0.8326568603515625
-0.284881591796875,-0.02825927734375,0.8567352294921875
-0.282623291015625,-0.0263671875,0.8634796142578125
-0.296112060546875,-0.0160675048828125,0.871795654296875
-0.3106689453125,-0.0046234130859375,0.8993072509765625
-0.3249053955078125,-0.044525146484375,0.9282379150390625
-0.358306884765625,-0.0445404052734375,0.957275390625
-0.4040679931640625,-0.026397705078125,1.0277099609375
-0.410675048828125,-0.0555267333984375,1.0792999267578125
-0.4436798095703125,-0.11138916015625,1.105621337890625
-0.468658447265625,-0.11871337890625,1.146087646484375
-0.496978759765625,-0.1307373046875,1.182373046875
-0.5280303955078125,-0.1568145751953125,1.225830078125
-0.5512847900390625,-0.1617279052734375,1.26507568359375
-0.591400146484375,-0.1755828857421875,1.311279296875
-0.6309051513671875,-0.1753387451171875,1.3567047119140625
-0.6819000244140625,-0.180084228515625,1.3886566162109375
-0.7392425537109375,-0.2184906005859375,1.4036102294921875
-0.8113555908203125,-0.2582855224609375,1.3890838623046875
-0.905731201171875,-0.318817138671875,1.383056640625
-0.987762451171875,-0.36651611328125,1.369659423828125
-1.06109619140625,-0.4004974365234375,1.3523712158203125
-1.1337890625,-0.4269866943359375,1.3284149169921875
-1.178070068359375,-0.407501220703125,1.30242919921875
-1.194122314453125,-0.4588470458984375,1.2570953369140625
-1.2195281982421875,-0.4962310791015625,1.2156524658203125
-1.2195281982421875,-0.4962310791015625,1.2156524658203125
-1.2368316650390625,-0.489349365234375,1.127593994140625
-1.2368316650390625,-0.489349365234375,1.127593994140625
-1.2813720703125,-0.532928466796875,1.053619384765625
-1.2813720703125,-0.532928466796875,1.053619384765625
-1.2858428955078125,-0.554840087890625,1.0050201416015625
-1.289337158203125,-0.5667266845703125,0.9520721435546875
-1.2805328369140625,-0.566497802734375,0.911468505859375
-1.245880126953125,-0.5501861572265625,0.8584136962890625
-1.2047576904296875,-0.5428924560546875,0.80401611328125
-1.160369873046875,-0.51556396484375,0.760101318359375
-1.0721282958984375,-0.44970703125,0.7125396728515625
-0.96685791015625,-0.3968963623046875,0.6585540771484375
-0.8682403564453125,-0.33349609375,0.612060546875
-0.7237396240234375,-0.2760009765625,0.561798095703125
-0.59521484375,-0.257232666015625,0.52197265625
-0.462310791015625,-0.2187652587890625,0.476654052734375
-0.3239898681640625,-0.17694091796875,0.4261016845703125
-0.214141845703125,-0.146392822265625,0.3899688720703125
-0.1733551025390625,-0.1326751708984375,0.308258056640625
-0.117401123046875,-0.1437530517578125,0.2540740966796875
-0.0592498779296875,-0.1025848388671875,0.2010955810546875
0.0023651123046875,-0.0681304931640625,0.167083740234375
0.06817626953125,-0.06549072265625,0.1357421875
0.1529998779296875,-0.0659332275390625,0.1076812744140625
0.208709716796875,-0.073486328125,0.1150665283203125
0.2530364990234375,-0.06195068359375,0.1412353515625
0.2720794677734375,-0.0926971435546875,0.1564788818359375
0.250640869140625,-0.11370849609375,0.1776123046875
0.2155609130859375,-0.1054229736328125,0.2122802734375
0.1827545166015625,-0.10546875,0.2427215576171875
0.163238525390625,-0.1133880615234375,0.267364501953125
0.13641357421875,-0.1315765380859375,0.272857666015625
0.097686767578125,-0.1484832763671875,0.285980224609375
0.0430755615234375,-0.171478271484375,0.306488037109375
-0.0139923095703125,-0.1812744140625,0.3426361083984375
-0.0766143798828125,-0.1887359619140625,0.377655029296875
-0.1585845947265625,-0.2318572998046875,0.48760986328125
-0.2075958251953125,-0.2584381103515625,0.6066436767578125
-0.2808380126953125,-0.275482177734375,0.6612548828125
-0.3605194091796875,-0.3238067626953125,0.789093017578125
-0.450836181640625,-0.358123779296875,0.9278106689453125
-0.526336669921875,-0.38592529296875,1.027923583984375
-0.626800537109375,-0.42535400390625,1.1443023681640625
-0.7248992919921875,-0.452423095703125,1.268402099609375
-0.8277130126953125,-0.4674224853515625,1.3722076416015625
-0.935546875,-0.506256103515625,1.47625732421875
-1.017181396484375,-0.545654296875,1.5644989013671875
-1.101409912109375,-0.5453948974609375,1.636962890625
-1.1956634521484375,-0.56121826171875,1.7117767333984375
-1.2696075439453125,-0.5703887939453125,1.755279541015625
-1.331878662109375,-0.6127166748046875,1.77789306640625
-1.401458740234375,-0.6150665283203125,1.7691192626953125
-1.437591552734375,-0.5820159912109375,1.7354278564453125
-1.431427001953125,-0.5357208251953125,1.6613922119140625
-1.37615966796875,-0.473358154296875,1.5516357421875
-1.2938690185546875,-0.4831390380859375,1.4314422607421875
-1.2064208984375,-0.484954833984375,1.301971435546875
-1.1136322021484375,-0.4671478271484375,1.190338134765625
-1.0450286865234375,-0.4776458740234375,1.0809173583984375
-0.9700927734375,-0.4290313720703125,0.997467041015625
-0.8527374267578125,-0.3504180908203125,0.902862548828125
-0.7277984619140625,-0.3135223388671875,0.823760986328125
-0.59844970703125,-0.212615966796875,0.729949951171875
-0.4534759521484375,-0.14276123046875,0.63458251953125
-0.3032684326171875,-0.09674072265625,0.55596923828125
-0.183013916015625,-0.0487213134765625,0.48248291015625
-0.1181640625,-0.028656005859375,0.3842620849609375
-0.057159423828125,-0.04345703125,0.310394287109375
-0.01593017578125,-0.05169677734375,0.2627105712890625
0.031982421875,-0.042724609375,0.2684478759765625
0.0668487548828125,-0.067840576171875,0.278076171875
0.085296630859375,-0.093658447265625,0.3434600830078125
0.10137939453125,-0.059906005859375,0.4326934814453125
0.0963134765625,-0.0645599365234375,0.5291595458984375
0.0876922607421875,-0.0774078369140625,0.6147918701171875
0.0873870849609375,-0.0728607177734375,0.7118072509765625
0.046051025390625,-0.1091461181640625,0.7916259765625
0.0050811767578125,-0.188720703125,0.8492584228515625
-0.0467987060546875,-0.2492828369140625,0.909515380859375
-0.0749664306640625,-0.26629638671875,0.978179931640625
-0.114288330078125,-0.334808349609375,1.0100860595703125
-0.1631011962890625,-0.419921875,1.0343170166015625
-0.2027130126953125,-0.455047607421875,1.03973388671875
-0.2342376708984375,-0.4991912841796875,1.052276611328125
-0.2857818603515625,-0.5912628173828125,1.021820068359375
-0.346771240234375,-0.6662445068359375,0.9667205810546875
-0.3859710693359375,-0.6971435546875,0.9142303466796875
-0.4515838623046875,-0.755706787109375,0.8555145263671875
-0.4963836669921875,-0.8289642333984375,0.7791290283203125
-0.5543670654296875,-0.922698974609375,0.6710662841796875
-0.613677978515625,-1.0178070068359375,0.5660552978515625
-0.6995391845703125,-1.1054534912109375,0.4439544677734375
-0.7737884521484375,-1.153228759765625,0.31475830078125
-0.8270721435546875,-1.1504669189453125,0.199371337890625
-0.857330322265625,-1.143096923828125,0.094207763671875
-0.85540771484375,-1.1629180908203125,0.0208587646484375
-0.803863525390625,-1.0896759033203125,-0.04254150390625
-0.742828369140625,-1.016448974609375,-0.0984344482421875
-0.6703948974609375,-0.969207763671875,-0.1258697509765625
-0.5991973876953125,-0.9060821533203125,-0.1336517333984375
-0.5228729248046875,-0.8388671875,-0.13861083984375
-0.4354400634765625,-0.76068115234375,-0.1318511962890625
-0.349395751953125,-0.6855926513671875,-0.1090545654296875
-0.271942138671875,-0.618255615234375,-0.0704498291015625
-0.18096923828125,-0.549774169921875,-0.0119476318359375
-0.10906982421875,-0.4792938232421875,0.0398406982421875
-0.0643157958984375,-0.4029998779296875,0.170989990234375
-0.03875732421875,-0.2969970703125,0.279144287109375
0.001312255859375,-0.2237396240234375,0.3329010009765625
0.0302734375,-0.1847381591796875,0.413787841796875
0.0601806640625,-0.139862060546875,0.4981842041015625
0.1160125732421875,-0.093475341796875,0.570526123046875
0.156402587890625,-0.0731964111328125,0.6024017333984375
0.1767425537109375,-0.0614013671875,0.624969482421875
0.1795196533203125,-0.0281829833984375,0.6501007080078125
0.179290771484375,0.012908935546875,0.6511383056640625
0.1652069091796875,0.0578460693359375,0.6477203369140625
0.1337432861328125,0.0701904296875,0.68646240234375
0.1105194091796875,0.105743408203125,0.846771240234375
0.0668487548828125,0.1281890869140625,0.95062255859375
0.032470703125,0.1168212890625,0.9956512451171875
-0.00885009765625,0.1061248779296875,1.08782958984375
-0.0337677001953125,0.1281280517578125,1.1686859130859375
-0.027587890625,0.1243133544921875,1.2360076904296875
-0.015167236328125,0.0592803955078125,1.2779541015625
-0.047607421875,0.027984619140625,1.311767578125
-0.116455078125,0.005889892578125,1.4044189453125
-0.1643218994140625,-0.01885986328125,1.495574951171875
-0.2377471923828125,-0.0512847900390625,1.592071533203125
-0.33929443359375,-0.086761474609375,1.677215576171875
-0.4360809326171875,-0.113861083984375,1.7552490234375
-0.536590576171875,-0.1282958984375,1.8356781005859375
-0.624847412109375,-0.132537841796875,1.8861236572265625
-0.7360992431640625,-0.1948394775390625,1.92816162109375
-0.8606109619140625,-0.267425537109375,1.941925048828125
-0.9890594482421875,-0.3118438720703125,1.93280029296875
-1.1055145263671875,-0.3327789306640625,1.885406494140625
-1.1757659912109375,-0.393096923828125,1.809783935546875
-1.229248046875,-0.4488372802734375,1.6935272216796875
-1.24200439453125,-0.4148101806640625,1.5582427978515625
-1.1883697509765625,-0.3928070068359375,1.4000091552734375
-1.10858154296875,-0.437103271484375,1.223602294921875
-1.0168914794921875,-0.4655303955078125,1.081329345703125
-0.9293365478515625,-0.433624267578125,0.9309844970703125
-0.855133056640625,-0.41400146484375,0.798980712890625
-0.7822113037109375,-0.387359619140625,0.6806793212890625
-0.7234649658203125,-0.3525238037109375,0.552490234375
-0.6528472900390625,-0.318939208984375,0.4552459716796875
-0.54998779296875,-0.2775421142578125,0.3697967529296875
-0.4417877197265625,-0.240753173828125,0.2900238037109375
-0.3057861328125,-0.1871337890625,0.2193145751953125
-0.1737518310546875,-0.1792144775390625,0.15411376953125
-0.05023193359375,-0.1719512939453125,0.1040496826171875
0.0309295654296875,-0.149658203125,0.033721923828125
0.0737762451171875,-0.180206298828125,-0.006683349609375
0.1148223876953125,-0.194427490234375,-0.032196044921875
0.1352691650390625,-0.1934356689453125,-0.024505615234375
0.138885498046875,-0.1883697509765625,0.0175323486328125
0.1580810546875,-0.1765289306640625,0.0486907958984375
0.1842193603515625,-0.1564788818359375,0.06915283203125
0.200653076171875,-0.1544036865234375,0.11053466796875
0.206390380859375,-0.1612396240234375,0.1702880859375
0.1884307861328125,-0.15643310546875,0.2454681396484375
0.1185150146484375,-0.154754638671875,0.3292999267578125
0.02044677734375,-0.1594696044921875,0.3829193115234375
-0.101959228515625,-0.1667022705078125,0.436065673828125
-0.2371673583984375,-0.180572509765625,0.5761871337890625
-0.3230438232421875,-0.175140380859375,0.711639404296875
-0.3757476806640625,-0.183441162109375,0.7980194091796875
-0.441558837890625,-0.1920928955078125,0.9411163330078125
-0.4775238037109375,-0.185821533203125,1.115203857421875
-0.497222900390625,-0.1846466064453125,1.249664306640625
-0.55426025390625,-0.16961669921875,1.384765625
-0.629547119140625,-0.1544036865234375,1.5272216796875
-0.7173004150390625,-0.1473541259765625,1.64129638671875
-0.8363800048828125,-0.160888671875,1.7472686767578125
-0.9586181640625,-0.1648406982421875,1.84759521484375
-1.06805419921875,-0.154266357421875,1.8839111328125
-1.1652679443359375,-0.135040283203125,1.920257568359375
-1.1993255615234375,-0.0797119140625,1.9400482177734375
-1.1675262451171875,-0.0658111572265625,1.92523193359375
-1.130584716796875,-0.083404541015625,1.9173431396484375
-1.088134765625,-0.0477752685546875,1.8868865966796875
-1.0252685546875,-0.0089569091796875,1.8367462158203125
-0.9840087890625,0.0045013427734375,1.763214111328125
-0.9422607421875,0.014068603515625,1.683258056640625
-0.8919525146484375,0.013397216796875,1.6201324462890625
-0.8521728515625,0.0169677734375,1.5548553466796875
-0.7987823486328125,0.0663299560546875,1.4988861083984375
-0.7210845947265625,0.0916595458984375,1.432769775390625
-0.6104583740234375,0.0824432373046875,1.3642730712890625
-0.5108489990234375,0.069854736328125,1.30682373046875
-0.4181365966796875,0.0733642578125,1.2449798583984375
-0.32537841796875,0.09197998046875,1.186981201171875
-0.271148681640625,0.0861358642578125,1.1049957275390625
-0.2850189208984375,0.027069091796875,0.9693756103515625
-0.2577362060546875,0.0009613037109375,0.915496826171875
-0.2277069091796875,0.0113525390625,0.8630218505859375
-0.2316741943359375,-0.02978515625,0.7793731689453125
-0.20599365234375,-0.0213165283203125,0.708343505859375
-0.14654541015625,0.0065460205078125,0.628936767578125
-0.14654541015625,0.0065460205078125,0.628936767578125
0.041534423828125,0.014251708984375,0.4902191162109375
0.1224365234375,-0.012542724609375,0.3967742919921875
0.145843505859375,-0.0631256103515625,0.2975616455078125
0.171966552734375,-0.0888671875,0.209228515625
0.1852264404296875,-0.0825042724609375,0.1206512451171875
0.1751861572265625,-0.1010894775390625,0.003936767578125
0.1681060791015625,-0.1407318115234375,-0.107147216796875
0.2011260986328125,-0.158660888671875,-0.173126220703125
0.242279052734375,-0.1800384521484375,-0.24395751953125
0.242279052734375,-0.1800384521484375,-0.24395751953125
0.2746734619140625,-0.2107696533203125,-0.3091278076171875
0.3194427490234375,-0.2197723388671875,-0.381591796875
0.3194427490234375,-0.2197723388671875,-0.381591796875
0.2990570068359375,-0.247100830078125,-0.400390625
0.245208740234375,-0.2698516845703125,-0.4139404296875
0.163482666015625,-0.2873687744140625,-0.3828887939453125
0.0834197998046875,-0.316162109375,-0.3700714111328125
0.020050048828125,-0.3934783935546875,-0.349945068359375
-0.046539306640625,-0.4574737548828125,-0.2962493896484375
-0.09832763671875,-0.4910736083984375,-0.2157745361328125
-0.13494873046875,-0.5171661376953125,-0.113861083984375
-0.13519287109375,-0.539703369140625,-0.0155487060546875
-0.1634063720703125,-0.5735626220703125,0.1162261962890625
-0.2284698486328125,-0.6097259521484375,0.2802276611328125
-0.324249267578125,-0.613677978515625,0.3839874267578125
-0.4411773681640625,-0.6467742919921875,0.4317626953125
-0.5844268798828125,-0.677490234375,0.426513671875
-0.7484283447265625,-0.6942291259765625,0.3871612548828125
-0.9071502685546875,-0.7039337158203125,0.361297607421875
-1.0104522705078125,-0.7637939453125,0.3805084228515625
-1.067352294921875,-0.8434295654296875,0.288421630859375
-1.0817718505859375,-0.7739105224609375,0.2073974609375
-1.05389404296875,-0.7744598388671875,0.12750244140625
-1.00732421875,-0.8630218505859375,-0.0059967041015625
-0.9443359375,-0.8664398193359375,-0.1317901611328125
-0.8857879638671875,-0.83575439453125,-0.2773284912109375
-0.8343048095703125,-0.8191070556640625,-0.402374267578125
-0.7715606689453125,-0.8042449951171875,-0.5277862548828125
-0.7271270751953125,-0.809051513671875,-0.6801300048828125
-0.7128448486328125,-0.8118133544921875,-0.7214813232421875
-0.6821441650390625,-0.770904541015625,-0.77728271484375
-0.606170654296875,-0.7592926025390625,-0.86175537109375
