Acceleration_X,Acceleration_Y,Acceleration_Z
-0.4647979736328125,-0.8059844970703125,-0.493682861328125
-0.4857330322265625,-0.7883453369140625,-0.46392822265625
-0.5222015380859375,-0.775177001953125,-0.4638824462890625
-0.5222015380859375,-0.775177001953125,-0.4638824462890625
-0.5047454833984375,-0.76690673828125,-0.4739990234375
-0.4906768798828125,-0.7687225341796875,-0.4933624267578125
-0.4906768798828125,-0.7687225341796875,-0.4933624267578125
-0.484954833984375,-0.7619476318359375,-0.4863433837890625
-0.484954833984375,-0.7619476318359375,-0.4863433837890625
-0.5015411376953125,-0.76776123046875,-0.5048370361328125
-0.5015411376953125,-0.76776123046875,-0.5048370361328125
-0.5072784423828125,-0.7843170166015625,-0.5026092529296875
-0.507293701171875,-0.8045196533203125,-0.4967803955078125
-0.5017852783203125,-0.8194580078125,-0.4941253662109375
-0.5047454833984375,-0.834381103515625,-0.4873046875
-0.5081329345703125,-0.8674774169921875,-0.4928741455078125
-0.5157623291015625,-0.9114532470703125,-0.5064544677734375
-0.5484466552734375,-0.9396820068359375,-0.5218353271484375
-0.584259033203125,-0.9803619384765625,-0.54217529296875
-0.597991943359375,-1.029296875,-0.5679473876953125
-0.6184234619140625,-1.06158447265625,-0.6153564453125
-0.6510162353515625,-1.0765380859375,-0.639251708984375
-0.6846160888671875,-1.096771240234375,-0.6749267578125
-0.7216644287109375,-1.12701416015625,-0.710784912109375
-0.764190673828125,-1.1603546142578125,-0.7537078857421875
-0.8099517822265625,-1.1986846923828125,-0.7762908935546875
-0.8703460693359375,-1.234405517578125,-0.772216796875
-0.9288330078125,-1.265625,-0.760040283203125
-0.9746856689453125,-1.2760467529296875,-0.765228271484375
-1.01861572265625,-1.2835845947265625,-0.7413330078125
-1.0374298095703125,-1.273956298828125,-0.74517822265625
-1.0500640869140625,-1.2648468017578125,-0.742950439453125
-1.0375823974609375,-1.2598419189453125,-0.7237701416015625
-1.0146026611328125,-1.2547149658203125,-0.71453857421875
-1.0095367431640625,-1.2411651611328125,-0.681854248046875
-0.9941864013671875,-1.207489013671875,-0.6198272705078125
-0.947906494140625,-1.1588897705078125,-0.5867462158203125
-0.8902740478515625,-1.1110076904296875,-0.5519561767578125
-0.8426513671875,-1.06207275390625,-0.5040130615234375
-0.790863037109375,-1.0028228759765625,-0.450164794921875
-0.7347564697265625,-0.90960693359375,-0.40509033203125
-0.6898040771484375,-0.819610595703125,-0.34100341796875
-0.6325836181640625,-0.72503662109375,-0.270233154296875
-0.5599212646484375,-0.616973876953125,-0.2306976318359375
-0.478271484375,-0.5186767578125,-0.1927642822265625
-0.39202880859375,-0.4339141845703125,-0.15582275390625
-0.307861328125,-0.35577392578125,-0.125823974609375
-0.2257843017578125,-0.2905731201171875,-0.0857391357421875
-0.143463134765625,-0.2424163818359375,-0.06561279296875
-0.0565032958984375,-0.2005767822265625,-0.0516815185546875
0.0196533203125,-0.155792236328125,-0.0509033203125
0.0779571533203125,-0.1078643798828125,-0.0411376953125
0.12493896484375,-0.07952880859375,-0.019622802734375
0.1556243896484375,-0.0837860107421875,-0.016876220703125
0.1834869384765625,-0.1042633056640625,0.0043487548828125
0.2225189208984375,-0.1202850341796875,0.0418853759765625
0.2545928955078125,-0.143463134765625,0.078033447265625
0.2531280517578125,-0.1810302734375,0.1085968017578125
0.245147705078125,-0.193023681640625,0.1420135498046875
0.2132568359375,-0.19073486328125,0.18304443359375
0.175750732421875,-0.204193115234375,0.2136077880859375
0.14666748046875,-0.19952392578125,0.248748779296875
0.131011962890625,-0.168701171875,0.2677154541015625
0.145416259765625,-0.1744842529296875,0.246826171875
0.173797607421875,-0.2050323486328125,0.215850830078125
0.2052764892578125,-0.2060089111328125,0.1898345947265625
0.2251129150390625,-0.2313232421875,0.1457366943359375
0.2095489501953125,-0.2747955322265625,0.11444091796875
0.14617919921875,-0.2895355224609375,0.11407470703125
0.059478759765625,-0.2992706298828125,0.0926055908203125
-0.0300750732421875,-0.29302978515625,0.07708740234375
-0.09600830078125,-0.2630462646484375,0.1114654541015625
-0.1279296875,-0.21832275390625,0.130615234375
-0.1409759521484375,-0.1726226806640625,0.15142822265625
-0.130218505859375,-0.1565093994140625,0.1421966552734375
-0.10858154296875,-0.2381591796875,0.061309814453125
-0.1535186767578125,-0.31817626953125,0.0124053955078125
-0.25164794921875,-0.373565673828125,0.0018463134765625
-0.3235321044921875,-0.4506072998046875,-0.0174407958984375
-0.391326904296875,-0.451202392578125,0.001983642578125
-0.444549560546875,-0.386993408203125,0.0039520263671875
-0.45721435546875,-0.379486083984375,-0.0193634033203125
-0.4634857177734375,-0.350067138671875,-0.0380706787109375
-0.4535675048828125,-0.3346099853515625,-0.123626708984375
-0.4507904052734375,-0.5045318603515625,-0.30255126953125
-0.5179595947265625,-0.7424163818359375,-0.362274169921875
-0.6663818359375,-0.94390869140625,-0.3663787841796875
-0.8361358642578125,-1.202545166015625,-0.429443359375
-1.0247650146484375,-1.438629150390625,-0.44793701171875
-1.3390350341796875,-1.6236724853515625,-0.4883270263671875
-1.5971527099609375,-1.8129730224609375,-0.508941650390625
-1.72210693359375,-1.9315948486328125,-0.6205902099609375
-1.8304443359375,-2.0006561279296875,-0.7278594970703125
-1.907867431640625,-2.03619384765625,-0.86627197265625
-1.9461822509765625,-2.071441650390625,-1.020782470703125
-1.9747314453125,-2.0418853759765625,-1.1054840087890625
-1.939788818359375,-2.0467681884765625,-1.130096435546875
-1.8668212890625,-2.0599365234375,-1.1120758056640625
-1.7587127685546875,-1.9820404052734375,-1.0492401123046875
-1.614715576171875,-1.816680908203125,-0.9509124755859375
-1.4624176025390625,-1.6219482421875,-0.8436279296875
-1.2909393310546875,-1.42913818359375,-0.7855377197265625
-1.13641357421875,-1.312255859375,-0.7734832763671875
-0.9819183349609375,-1.18341064453125,-0.782135009765625
-0.8189239501953125,-1.0706634521484375,-0.81622314453125
-0.6681671142578125,-0.9589691162109375,-0.8547821044921875
-0.4930877685546875,-0.86016845703125,-0.8860321044921875
-0.3121337890625,-0.7648773193359375,-0.90618896484375
-0.1536102294921875,-0.6348114013671875,-0.9409332275390625
-0.03448486328125,-0.5612640380859375,-0.9417724609375
0.0882415771484375,-0.46270751953125,-0.9069366455078125
0.1703338623046875,-0.3798980712890625,-0.8799896240234375
0.2285919189453125,-0.3190765380859375,-0.8062286376953125
0.2667236328125,-0.2363739013671875,-0.719085693359375
0.2649993896484375,-0.2139434814453125,-0.6275787353515625
0.2551727294921875,-0.168243408203125,-0.4723052978515625
0.1914215087890625,-0.15765380859375,-0.3035430908203125
0.0989837646484375,-0.1786346435546875,-0.096649169921875
-0.0123138427734375,-0.180419921875,0.12139892578125
-0.12445068359375,-0.19500732421875,0.3349456787109375
-0.2126922607421875,-0.2236328125,0.5294647216796875
-0.3077239990234375,-0.2518157958984375,0.7213134765625
-0.42352294921875,-0.2688446044921875,0.8845977783203125
-0.5381011962890625,-0.2576751708984375,1.0348052978515625
-0.628326416015625,-0.2335052490234375,1.16302490234375
-0.6974334716796875,-0.253143310546875,1.2299957275390625
-0.75616455078125,-0.3003082275390625,1.2833709716796875
-0.80950927734375,-0.3334503173828125,1.31341552734375
-0.890289306640625,-0.385009765625,1.3162994384765625
-0.967926025390625,-0.4135589599609375,1.2984619140625
-1.03216552734375,-0.42230224609375,1.25347900390625
-1.0816192626953125,-0.4755859375,1.1811370849609375
-1.078826904296875,-0.4720611572265625,1.0778350830078125
-1.052642822265625,-0.4614715576171875,1.0017242431640625
-1.025909423828125,-0.513214111328125,0.894378662109375
-0.9796600341796875,-0.53656005859375,0.748504638671875
-0.9249725341796875,-0.5755615234375,0.596832275390625
-0.8441925048828125,-0.6600494384765625,0.43817138671875
-0.76385498046875,-0.7143402099609375,0.24871826171875
-0.678131103515625,-0.780029296875,0.0642242431640625
-0.5620269775390625,-0.7929840087890625,-0.1357269287109375
-0.4348602294921875,-0.79937744140625,-0.3318634033203125
-0.3048858642578125,-0.7692718505859375,-0.5158843994140625
-0.1817474365234375,-0.74700927734375,-0.696136474609375
-0.1107940673828125,-0.7264862060546875,-0.8251800537109375
-0.0522613525390625,-0.6700897216796875,-0.889984130859375
0.0117340087890625,-0.6392364501953125,-0.87506103515625
0.065887451171875,-0.6402435302734375,-0.8513946533203125
0.0972137451171875,-0.64447021484375,-0.792510986328125
0.0410003662109375,-0.677581787109375,-0.730224609375
-0.020538330078125,-0.68170166015625,-0.6535491943359375
-0.111968994140625,-0.716552734375,-0.58026123046875
-0.247528076171875,-0.76953125,-0.469482421875
-0.3962554931640625,-0.8080902099609375,-0.3624725341796875
-0.56939697265625,-0.859893798828125,-0.2488861083984375
-0.7432861328125,-0.9391632080078125,-0.130157470703125
-0.9176483154296875,-1.0272369384765625,-0.0052337646484375
-1.074066162109375,-1.0855560302734375,0.118377685546875
-1.216796875,-1.1506500244140625,0.2386932373046875
-1.338958740234375,-1.170989990234375,0.337738037109375
-1.4690093994140625,-1.2020111083984375,0.436676025390625
-1.5791168212890625,-1.2508544921875,0.5240631103515625
-1.688568115234375,-1.2958526611328125,0.5861968994140625
-1.7943572998046875,-1.333343505859375,0.62579345703125
-1.8681182861328125,-1.294952392578125,0.6283416748046875
-1.8432464599609375,-1.223968505859375,0.6084747314453125
-1.796844482421875,-1.20465087890625,0.5749359130859375
-1.7282257080078125,-1.2001495361328125,0.5422821044921875
-1.664093017578125,-1.162017822265625,0.542877197265625
-1.5931549072265625,-1.124786376953125,0.5622711181640625
-1.510040283203125,-1.079437255859375,0.5586090087890625
-1.4297027587890625,-1.0549774169921875,0.550567626953125
-1.3631591796875,-1.0206146240234375,0.5319671630859375
-1.2832489013671875,-0.94268798828125,0.509033203125
-1.1743316650390625,-0.80352783203125,0.4861297607421875
-1.0091552734375,-0.7339324951171875,0.462982177734375
-0.832855224609375,-0.667877197265625,0.4288482666015625
-0.6939697265625,-0.5755157470703125,0.41619873046875
-0.5419769287109375,-0.4768524169921875,0.3979644775390625
-0.3895721435546875,-0.414703369140625,0.307220458984375
-0.2982940673828125,-0.3905487060546875,0.222808837890625
-0.1844940185546875,-0.3177032470703125,0.14996337890625
-0.057891845703125,-0.23590087890625,0.0572662353515625
0.0703277587890625,-0.1797637939453125,-0.017364501953125
0.2124481201171875,-0.1230316162109375,-0.07684326171875
0.3381805419921875,-0.066864013671875,-0.0950927734375
0.436248779296875,-0.042144775390625,-0.111785888671875
0.4881591796875,-0.0379638671875,-0.1177215576171875
0.5247955322265625,-0.0407257080078125,-0.119171142578125
0.4711151123046875,-0.0568084716796875,-0.150848388671875
0.4422454833984375,-0.0620880126953125,-0.1708984375
0.477294921875,-0.0528564453125,-0.153228759765625
0.4464569091796875,-0.052459716796875,-0.14605712890625
0.43115234375,0.0146026611328125,-0.110137939453125
0.4049072265625,0.1041412353515625,-0.0649566650390625
0.3565826416015625,0.124176025390625,-0.0413665771484375
0.3049774169921875,0.1474456787109375,-0.0094451904296875
0.2529296875,0.148284912109375,-0.01092529296875
0.191741943359375,0.1338653564453125,-0.00592041015625
0.145538330078125,0.1039276123046875,0.0031890869140625
0.1127166748046875,0.031280517578125,0.0460052490234375
0.0625762939453125,-0.020904541015625,0.1197357177734375
-0.004302978515625,-0.0521697998046875,0.204437255859375
-0.0894775390625,-0.098724365234375,0.3061065673828125
-0.19525146484375,-0.14691162109375,0.3876953125
-0.3281402587890625,-0.1878204345703125,0.455535888671875
-0.4525299072265625,-0.2686920166015625,0.539337158203125
-0.5594635009765625,-0.3071746826171875,0.6153411865234375
-0.707916259765625,-0.347259521484375,0.65155029296875
-0.8149871826171875,-0.4371795654296875,0.7290191650390625
-0.8999481201171875,-0.49407958984375,0.807769775390625
-1.0452728271484375,-0.5118255615234375,0.8441162109375
-1.236297607421875,-0.47515869140625,0.923370361328125
-1.3821563720703125,-0.4867706298828125,0.975860595703125
-1.556060791015625,-0.5485687255859375,1.037567138671875
-1.7013397216796875,-0.5547943115234375,1.0890655517578125
-1.797515869140625,-0.599517822265625,1.1425018310546875
-1.889862060546875,-0.6767578125,1.1717071533203125
-1.889862060546875,-0.6767578125,1.1717071533203125
-1.9914398193359375,-0.674072265625,1.2020263671875
-2.085723876953125,-0.691192626953125,1.2340240478515625
-2.22515869140625,-0.6803741455078125,1.2915191650390625
-2.250732421875,-0.717254638671875,1.2793426513671875
-2.250732421875,-0.717254638671875,1.2793426513671875
-2.247222900390625,-0.6741943359375,1.267974853515625
-2.2089080810546875,-0.6386871337890625,1.241546630859375
-2.12506103515625,-0.6120452880859375,1.192535400390625
-2.0294036865234375,-0.5966033935546875,1.1475372314453125
-1.916656494140625,-0.54913330078125,1.1197052001953125
-1.7942352294921875,-0.533935546875,1.06365966796875
-1.74755859375,-0.55023193359375,0.9724578857421875
-1.6650848388671875,-0.53448486328125,0.9171142578125
-1.5761260986328125,-0.540802001953125,0.8471221923828125
-1.4665679931640625,-0.486358642578125,0.7911224365234375
-1.3391571044921875,-0.417236328125,0.7216033935546875
-1.1555633544921875,-0.2837677001953125,0.62078857421875
-1.00445556640625,-0.2695159912109375,0.5154571533203125
-0.83966064453125,-0.2600860595703125,0.4269866943359375
-0.6780853271484375,-0.1857452392578125,0.3740234375
-0.5146942138671875,-0.1770477294921875,0.307159423828125
-0.338714599609375,-0.1429443359375,0.201690673828125
-0.2156219482421875,-0.1207275390625,0.14459228515625
-0.0942230224609375,-0.1061553955078125,0.1273040771484375
0.064727783203125,-0.0325164794921875,0.080718994140625
0.1516876220703125,-0.0160064697265625,0.00897216796875
0.17242431640625,-0.0521697998046875,-0.10784912109375
0.196624755859375,-0.0754547119140625,-0.218597412109375
0.19378662109375,-0.0438079833984375,-0.197296142578125
0.1921539306640625,-0.022674560546875,-0.202117919921875
0.226776123046875,-0.0696563720703125,-0.2817840576171875
0.281494140625,-0.0587921142578125,-0.2446441650390625
0.37847900390625,-0.0106658935546875,-0.2046051025390625
0.474212646484375,0.026092529296875,-0.1859588623046875
0.5367889404296875,0.03558349609375,-0.1649169921875
0.536163330078125,0.053466796875,-0.163360595703125
0.4768218994140625,0.04656982421875,-0.1892547607421875
0.415069580078125,0.0009002685546875,-0.191162109375
0.3676300048828125,-0.02752685546875,-0.1569061279296875
0.3185577392578125,-0.026336669921875,-0.1319427490234375
0.2827301025390625,-0.034088134765625,-0.07232666015625
0.2850494384765625,-0.04498291015625,0.014434814453125
0.2469329833984375,-0.0593414306640625,0.0999908447265625
0.164642333984375,-0.0929107666015625,0.2259368896484375
0.05279541015625,-0.1217498779296875,0.31610107421875
-0.1472625732421875,-0.092529296875,0.35308837890625
-0.3566741943359375,-0.03521728515625,0.36553955078125
-0.538970947265625,-0.0597381591796875,0.3086090087890625
-0.6825103759765625,-0.1199951171875,0.280303955078125
-0.818756103515625,-0.2002716064453125,0.265350341796875
-0.9133758544921875,-0.2620391845703125,0.361175537109375
-1.0349578857421875,-0.274932861328125,0.466156005859375
-1.1878662109375,-0.326995849609375,0.6008148193359375
-1.35107421875,-0.3299407958984375,0.76959228515625
-1.52862548828125,-0.2829132080078125,0.9170074462890625
-1.7632293701171875,-0.3011932373046875,1.069244384765625
-1.91314697265625,-0.278411865234375,1.146270751953125
-2.0809173583984375,-0.2866058349609375,1.2340087890625
-2.199127197265625,-0.3270111083984375,1.344818115234375
-2.2608184814453125,-0.382110595703125,1.438018798828125
-2.3777923583984375,-0.4180145263671875,1.5202484130859375
-2.4474639892578125,-0.4434967041015625,1.5369110107421875
-2.5492706298828125,-0.4784088134765625,1.4977569580078125
-2.5309295654296875,-0.3397674560546875,1.4810638427734375
-2.4384002685546875,-0.314544677734375,1.43914794921875
-2.35736083984375,-0.299285888671875,1.380523681640625
-2.1970977783203125,-0.277984619140625,1.341217041015625
-2.0272979736328125,-0.2673797607421875,1.311309814453125
-1.8279876708984375,-0.22442626953125,1.2763214111328125
-1.6363372802734375,-0.2259674072265625,1.2561492919921875
-1.4157562255859375,-0.17584228515625,1.187591552734375
-1.2455291748046875,-0.1140289306640625,1.105987548828125
-1.0602569580078125,0.01629638671875,1.05169677734375
-0.7795257568359375,0.0647735595703125,0.993316650390625
-0.5188140869140625,0.0453033447265625,0.9666900634765625
-0.2872161865234375,0.06903076171875,0.95556640625
-0.272491455078125,-0.0113525390625,0.8240966796875
-0.1889495849609375,-0.0803985595703125,0.8227081298828125
-0.053375244140625,-0.0282745361328125,0.8467864990234375
0.0191650390625,-0.112884521484375,0.846710205078125
0.1519927978515625,-0.1042938232421875,0.8016204833984375
0.319793701171875,-0.05364990234375,0.785247802734375
0.475921630859375,-0.0435791015625,0.8265533447265625
0.5511474609375,-0.0596923828125,0.8058013916015625
0.4301300048828125,-0.162384033203125,0.7501373291015625
0.2750396728515625,-0.1988525390625,0.713043212890625
0.14813232421875,-0.2455291748046875,0.68572998046875
0.0166778564453125,-0.3328704833984375,0.5683441162109375
-0.0752410888671875,-0.415130615234375,0.408935546875
-0.10174560546875,-0.4769439697265625,0.235809326171875
-0.1283721923828125,-0.5123138427734375,0.057403564453125
-0.17950439453125,-0.5874176025390625,-0.125732421875
-0.3080596923828125,-0.6824493408203125,-0.2588958740234375
-0.458709716796875,-0.7107086181640625,-0.4039459228515625
-0.6892547607421875,-0.7758941650390625,-0.616973876953125
-0.9364013671875,-0.834564208984375,-0.7535400390625
-1.091796875,-0.877288818359375,-0.8311004638671875
-1.15924072265625,-0.927215576171875,-0.860321044921875
-1.12310791015625,-1.00140380859375,-0.86767578125
-1.0074462890625,-0.9936370849609375,-0.8048553466796875
-0.8946685791015625,-0.9609222412109375,-0.71673583984375
-0.7919769287109375,-0.9330596923828125,-0.601898193359375
-0.7281646728515625,-0.859619140625,-0.462921142578125
-0.6327362060546875,-0.8044586181640625,-0.267333984375
-0.5121917724609375,-0.7896575927734375,-0.121612548828125
-0.3889007568359375,-0.736907958984375,0.0572967529296875
-0.20281982421875,-0.6058807373046875,0.2472381591796875
-0.0106048583984375,-0.527191162109375,0.39398193359375
0.1485595703125,-0.388916015625,0.52557373046875
0.2538909912109375,-0.2524871826171875,0.6514129638671875
0.305999755859375,-0.14605712890625,0.743865966796875
0.3275909423828125,-0.0129852294921875,0.799896240234375
0.3597564697265625,0.01055908203125,0.846588134765625
0.4056396484375,-0.0008392333984375,0.85369873046875
0.4216766357421875,0.020660400390625,0.847686767578125
0.438720703125,0.0180511474609375,0.7837677001953125
0.453765869140625,0.0194091796875,0.7237091064453125
0.4117279052734375,0.0583648681640625,0.625457763671875
0.289947509765625,0.078887939453125,0.5038299560546875
0.1472015380859375,0.04510498046875,0.443511962890625
0.0697784423828125,-0.024078369140625,0.3652496337890625
-0.015533447265625,-0.1604461669921875,0.2500762939453125
-0.1394195556640625,-0.3441925048828125,0.1856536865234375
-0.211883544921875,-0.5153350830078125,0.1411590576171875
-0.33148193359375,-0.6742401123046875,0.15081787109375
-0.5474395751953125,-0.7810516357421875,0.1658172607421875
-0.7693023681640625,-0.830169677734375,0.1578521728515625
-1.0040740966796875,-0.8992767333984375,0.1446990966796875
-1.1866455078125,-0.9459228515625,0.0712890625
-1.34588623046875,-1.031829833984375,-0.006103515625
-1.4311981201171875,-1.0736236572265625,-0.0384979248046875
-1.5616912841796875,-1.03875732421875,-0.0937347412109375
-1.7042083740234375,-0.96563720703125,-0.0645599365234375
-1.752410888671875,-0.8206329345703125,-0.0171966552734375
-1.794219970703125,-0.7193603515625,0.02593994140625
-1.73114013671875,-0.6140899658203125,0.11175537109375
-1.6317138671875,-0.528564453125,0.226348876953125
-1.5056304931640625,-0.415771484375,0.3724517822265625
-1.349395751953125,-0.25909423828125,0.5000152587890625
-1.280731201171875,-0.0901641845703125,0.62530517578125
-1.274078369140625,0.055572509765625,0.8043060302734375
-1.253662109375,0.16082763671875,1.0069580078125
-1.2280120849609375,0.21063232421875,1.2073822021484375
-1.1682586669921875,0.244842529296875,1.43170166015625
-1.04302978515625,0.3109893798828125,1.6263885498046875
-0.9122314453125,0.31768798828125,1.756591796875
-0.8321075439453125,0.3332061767578125,1.844482421875
-0.8110809326171875,0.33892822265625,1.898773193359375
-0.81390380859375,0.343994140625,1.906402587890625
-0.8255462646484375,0.2899169921875,1.8717498779296875
-0.854705810546875,0.2539520263671875,1.813262939453125
-0.868988037109375,0.2194366455078125,1.7012939453125
-0.8784332275390625,0.13726806640625,1.5563812255859375
-0.9008331298828125,0.08154296875,1.390228271484375
-0.93609619140625,0.0021209716796875,1.204315185546875
-0.9734039306640625,-0.0251922607421875,1.0400390625
-0.9681549072265625,-0.0110015869140625,0.8840484619140625
-0.92730712890625,-0.039794921875,0.67822265625
-0.897186279296875,-0.0714111328125,0.5107269287109375
-0.8583221435546875,-0.1098480224609375,0.2958221435546875
-0.8744964599609375,-0.1862945556640625,0.061309814453125
-0.887847900390625,-0.2574920654296875,-0.1109466552734375
-0.9252166748046875,-0.35943603515625,-0.2609405517578125
-1.010223388671875,-0.4344940185546875,-0.3662109375
-1.0498046875,-0.45947265625,-0.3932037353515625
-1.0240631103515625,-0.4642333984375,-0.431732177734375
-0.9668426513671875,-0.462799072265625,-0.39434814453125
-0.9032135009765625,-0.462646484375,-0.3398895263671875
-0.839111328125,-0.485382080078125,-0.3133392333984375
-0.8477020263671875,-0.52978515625,-0.2382354736328125
-0.86126708984375,-0.54913330078125,-0.1615447998046875
-0.9527587890625,-0.6151123046875,-0.0920562744140625
-1.03875732421875,-0.6263275146484375,0.02203369140625
-1.11895751953125,-0.6471099853515625,0.1158599853515625
-1.20849609375,-0.60198974609375,0.2252960205078125
-1.2070159912109375,-0.52655029296875,0.319671630859375
-1.219268798828125,-0.5173797607421875,0.4280548095703125
-1.2730865478515625,-0.4623870849609375,0.5495147705078125
-1.3874053955078125,-0.478271484375,0.647186279296875
-1.5620880126953125,-0.512664794921875,0.7400054931640625
-1.7176971435546875,-0.5402679443359375,0.8392486572265625
-1.8358001708984375,-0.5512237548828125,0.91259765625
-1.8899993896484375,-0.5229034423828125,0.9867401123046875
-1.87744140625,-0.4591064453125,1.114166259765625
-1.784423828125,-0.4282989501953125,1.1494903564453125
-1.6727752685546875,-0.4118194580078125,1.1608734130859375
-1.5756988525390625,-0.3892822265625,1.1560516357421875
-1.5040435791015625,-0.4027252197265625,1.119049072265625
-1.431365966796875,-0.424041748046875,1.071014404296875
-1.3449859619140625,-0.44879150390625,0.9898529052734375
-1.2759246826171875,-0.465057373046875,0.8724212646484375
-1.167388916015625,-0.38702392578125,0.80267333984375
-0.9490814208984375,-0.2681732177734375,0.7412872314453125
-0.68646240234375,-0.26129150390625,0.6441650390625
-0.4983978271484375,-0.225311279296875,0.5980682373046875
-0.2963104248046875,-0.1455535888671875,0.523101806640625
-0.117462158203125,-0.14208984375,0.447784423828125
-0.0440826416015625,-0.14947509765625,0.379058837890625
0.011199951171875,-0.161712646484375,0.3261871337890625
0.0698699951171875,-0.1895294189453125,0.2344512939453125
0.1025390625,-0.227386474609375,0.1916351318359375
0.173553466796875,-0.2283935546875,0.1811065673828125
0.23590087890625,-0.20330810546875,0.1667327880859375
0.2818756103515625,-0.1751251220703125,0.1268310546875
0.3056182861328125,-0.1369171142578125,0.099945068359375
0.2848968505859375,-0.0860443115234375,0.1529998779296875
0.28826904296875,-0.0466766357421875,0.1541900634765625
0.281402587890625,-0.0550689697265625,0.1380462646484375
0.275543212890625,-0.049652099609375,0.1173248291015625
0.2715606689453125,-0.036651611328125,0.1021575927734375
0.2855377197265625,-0.0345458984375,0.09246826171875
0.26849365234375,-0.040740966796875,0.0802154541015625
0.2390594482421875,-0.0607147216796875,0.074371337890625
0.21795654296875,-0.055267333984375,0.107818603515625
0.21795654296875,-0.055267333984375,0.107818603515625
0.216522216796875,-0.06768798828125,0.187774658203125
0.216522216796875,-0.06768798828125,0.187774658203125
0.20623779296875,-0.1422576904296875,0.3303985595703125
0.1739654541015625,-0.1687469482421875,0.4111785888671875
0.109588623046875,-0.184051513671875,0.4400482177734375
0.055206298828125,-0.1352081298828125,0.4531707763671875
0.055206298828125,-0.1352081298828125,0.4531707763671875
-0.1029052734375,-0.151275634765625,0.4127655029296875
-0.1029052734375,-0.151275634765625,0.4127655029296875
-0.1990203857421875,-0.247955322265625,0.513427734375
-0.1990203857421875,-0.247955322265625,0.513427734375
-0.410919189453125,-0.3314361572265625,0.5906524658203125
-0.410919189453125,-0.3314361572265625,0.5906524658203125
-0.6021270751953125,-0.277099609375,0.6964111328125
-0.6021270751953125,-0.277099609375,0.6964111328125
-0.78021240234375,-0.2794036865234375,0.7518157958984375
-0.9447784423828125,-0.27178955078125,0.80279541015625
-1.123443603515625,-0.3190460205078125,0.8489227294921875
-1.2798614501953125,-0.349456787109375,0.923828125
-1.395782470703125,-0.4193572998046875,0.9766845703125
-1.5558929443359375,-0.4753570556640625,1.0413055419921875
-1.7276763916015625,-0.4798736572265625,1.1104583740234375
-1.8783111572265625,-0.472198486328125,1.151275634765625
-2.04022216796875,-0.4539947509765625,1.17901611328125
-2.100250244140625,-0.420562744140625,1.2139129638671875
-2.1260833740234375,-0.4412384033203125,1.2422637939453125
-2.1752166748046875,-0.4178924560546875,1.266876220703125
-2.2400970458984375,-0.42352294921875,1.255462646484375
-2.337890625,-0.485198974609375,1.2354736328125
-2.37628173828125,-0.53082275390625,1.241455078125
-2.3868865966796875,-0.5829620361328125,1.2129669189453125
-2.3372650146484375,-0.543365478515625,1.17816162109375
-2.1719818115234375,-0.445831298828125,1.1038818359375
-2.0005035400390625,-0.373321533203125,1.0530853271484375
-1.8120880126953125,-0.3026885986328125,1.0084686279296875
-1.62994384765625,-0.2826385498046875,0.92828369140625
-1.5328369140625,-0.3125152587890625,0.8687591552734375
-1.4359893798828125,-0.3206024169921875,0.7994384765625
-1.3672943115234375,-0.35113525390625,0.713165283203125
-1.3157958984375,-0.3611602783203125,0.6185760498046875
-1.23614501953125,-0.299713134765625,0.5056915283203125
-1.0489959716796875,-0.17083740234375,0.4072265625
-0.8507843017578125,-0.0629425048828125,0.2965850830078125
-0.585601806640625,-0.0207672119140625,0.2207794189453125
-0.3458709716796875,-0.0165863037109375,0.173309326171875
-0.10888671875,-0.023651123046875,0.0789642333984375
0.0371246337890625,-0.0765228271484375,0.0147247314453125
0.1585235595703125,-0.10113525390625,-0.03533935546875
0.282989501953125,-0.095703125,-0.0936737060546875
0.334625244140625,-0.1749114990234375,-0.1277618408203125
0.32940673828125,-0.24237060546875,-0.1364288330078125
0.340118408203125,-0.2429046630859375,-0.0947265625
0.317291259765625,-0.2422943115234375,-0.07830810546875
0.242034912109375,-0.284820556640625,-0.046112060546875
0.1857757568359375,-0.337371826171875,-0.0179901123046875
0.112884521484375,-0.3650970458984375,0.0437774658203125
0.0132293701171875,-0.373992919921875,0.1019134521484375
-0.0587615966796875,-0.395904541015625,0.14263916015625
-0.1106109619140625,-0.3498992919921875,0.1529693603515625
-0.1282958984375,-0.268707275390625,0.1565704345703125
-0.112274169921875,-0.23443603515625,0.137451171875
-0.1051788330078125,-0.2376861572265625,0.1183929443359375
-0.08465576171875,-0.198333740234375,0.1015777587890625
-0.0660858154296875,-0.1816864013671875,0.0873565673828125
-0.0247650146484375,-0.2261810302734375,0.13031005859375
0.0215301513671875,-0.240447998046875,0.2179107666015625
0.08502197265625,-0.29327392578125,0.2405242919921875
0.107666015625,-0.2972259521484375,0.291046142578125
0.168609619140625,-0.2762603759765625,0.353240966796875
0.2135009765625,-0.243316650390625,0.377593994140625
0.2282867431640625,-0.189605712890625,0.42974853515625
0.23760986328125,-0.2158966064453125,0.5288238525390625
0.20428466796875,-0.2735443115234375,0.607635498046875
0.154632568359375,-0.3647918701171875,0.71942138671875
0.0792236328125,-0.41998291015625,0.8486785888671875
-0.0662994384765625,-0.41619873046875,0.9127655029296875
-0.2367401123046875,-0.4046173095703125,0.9958038330078125
-0.3802337646484375,-0.3896331787109375,1.0728759765625
-0.560028076171875,-0.4187469482421875,1.17181396484375
-0.774169921875,-0.4738616943359375,1.272735595703125
-1.0262298583984375,-0.5817413330078125,1.392181396484375
-1.3016357421875,-0.662200927734375,1.502777099609375
-1.502349853515625,-0.7883148193359375,1.58331298828125
-1.6881103515625,-0.849395751953125,1.659423828125
-1.9165496826171875,-0.8379974365234375,1.648590087890625
-1.9780120849609375,-0.7789459228515625,1.660797119140625
-2.154693603515625,-0.76385498046875,1.50640869140625
-2.3233795166015625,-0.7493896484375,1.3529510498046875
-2.342041015625,-0.74365234375,1.2477874755859375
-2.3799591064453125,-0.7265472412109375,1.09625244140625
-2.3753204345703125,-0.74334716796875,0.9496307373046875
-2.3352508544921875,-0.756683349609375,0.78173828125
-2.273834228515625,-0.75653076171875,0.6231536865234375
-2.13787841796875,-0.6974334716796875,0.4766387939453125
-1.97052001953125,-0.6226043701171875,0.3226165771484375
-1.76580810546875,-0.5307769775390625,0.1891632080078125
-1.4878387451171875,-0.4703216552734375,0.09033203125
-1.22491455078125,-0.4491424560546875,0.035400390625
-1.0258026123046875,-0.4418487548828125,0.0043792724609375
-0.847320556640625,-0.3953857421875,-0.0480194091796875
-0.7109375,-0.437652587890625,-0.0801849365234375
-0.5978851318359375,-0.42071533203125,-0.069671630859375
-0.4601593017578125,-0.3016204833984375,-0.0573577880859375
-0.275848388671875,-0.1231231689453125,-0.06689453125
-0.0566864013671875,-0.00079345703125,-0.0869598388671875
0.12469482421875,0.02117919921875,-0.10589599609375
0.26495361328125,0.02557373046875,-0.1303863525390625
0.3526763916015625,0.0488433837890625,-0.1630706787109375
0.382965087890625,-0.00982666015625,-0.2276458740234375
0.3975830078125,-0.0627593994140625,-0.2945709228515625
0.4391632080078125,-0.0931854248046875,-0.3197174072265625
0.547332763671875,-0.084014892578125,-0.3083038330078125
0.6380157470703125,-0.094635009765625,-0.308563232421875
0.7513275146484375,-0.043701171875,-0.252227783203125
0.8592071533203125,0.018768310546875,-0.18634033203125
0.9115142822265625,-0.020233154296875,-0.0959930419921875
0.93951416015625,-0.0875244140625,-0.0025634765625
0.891937255859375,-0.134185791015625,0.0428466796875
0.8099365234375,-0.1782073974609375,0.1051177978515625
0.7264404296875,-0.195404052734375,0.155364990234375
0.5962677001953125,-0.1733245849609375,0.1782684326171875
0.463409423828125,-0.1773223876953125,0.21649169921875
0.3649749755859375,-0.1749114990234375,0.2853851318359375
0.2580108642578125,-0.1449432373046875,0.4124298095703125
0.0997467041015625,-0.1666717529296875,0.5072174072265625
-0.129730224609375,-0.1497955322265625,0.600799560546875
-0.396881103515625,-0.131927490234375,0.724700927734375
-0.6871795654296875,-0.19805908203125,0.8080902099609375
-0.9212646484375,-0.1796417236328125,0.990081787109375
-1.0675506591796875,-0.2173919677734375,1.0993194580078125
-1.26593017578125,-0.259368896484375,1.22882080078125
-1.4448699951171875,-0.2012481689453125,1.3546905517578125
-1.654266357421875,-0.13299560546875,1.4498443603515625
-1.8710174560546875,-0.1767730712890625,1.511016845703125
-2.1029510498046875,-0.2098846435546875,1.5213165283203125
-2.3648223876953125,-0.2911224365234375,1.553741455078125
-2.445159912109375,-0.316070556640625,1.55413818359375
-2.5618438720703125,-0.3207855224609375,1.5302581787109375
-2.6320648193359375,-0.242095947265625,1.5066070556640625
-2.586395263671875,-0.16693115234375,1.4504241943359375
-2.5858154296875,-0.157958984375,1.422760009765625
-2.5876922607421875,-0.1487884521484375,1.3745269775390625
-2.5586395263671875,-0.1759796142578125,1.292327880859375
-2.53106689453125,-0.21173095703125,1.1912689208984375
-2.4934844970703125,-0.2299957275390625,1.0522308349609375
-2.39410400390625,-0.269378662109375,0.9405364990234375
-2.2816619873046875,-0.19842529296875,0.8189239501953125
-2.1275482177734375,-0.140106201171875,0.6396636962890625
-2.006591796875,-0.108367919921875,0.4650115966796875
-1.872100830078125,-0.0684814453125,0.3889007568359375
-1.70269775390625,-0.066619873046875,0.32452392578125
-1.611328125,-0.08709716796875,0.1781005859375
-1.5348052978515625,-0.121337890625,0.057098388671875
-1.434295654296875,-0.1966552734375,-0.0306854248046875
-1.3267059326171875,-0.3047027587890625,-0.1060333251953125
-1.2167510986328125,-0.343963623046875,-0.1744384765625
-1.11700439453125,-0.1798553466796875,-0.153961181640625
-0.84613037109375,0.0738525390625,-0.1848907470703125
-0.5217742919921875,0.14141845703125,-0.2104339599609375
-0.102996826171875,0.32745361328125,-0.27020263671875
0.09088134765625,0.1818084716796875,-0.283294677734375
0.3084564208984375,0.013885498046875,-0.3356475830078125
0.43365478515625,-0.0384521484375,-0.3176727294921875
0.46771240234375,-0.128936767578125,-0.351226806640625
0.4645538330078125,-0.040802001953125,-0.3938446044921875
0.6011199951171875,0.157684326171875,-0.4814453125
0.826568603515625,0.1008453369140625,-0.5740509033203125
1.0439453125,0.1480865478515625,-0.57232666015625
1.2189788818359375,0.115753173828125,-0.5564422607421875
1.2606658935546875,0.0203094482421875,-0.4737396240234375
1.20465087890625,-0.1275787353515625,-0.4014129638671875
1.1352081298828125,-0.3576202392578125,-0.3158416748046875
1.11505126953125,-0.4852294921875,-0.1673126220703125
1.0708465576171875,-0.377166748046875,-0.0810394287109375
1.0133819580078125,-0.2709503173828125,-0.0280609130859375
1.026763916015625,-0.0802764892578125,0.034332275390625
1.00897216796875,0.09295654296875,0.09686279296875
0.8948516845703125,0.1902008056640625,0.1081390380859375
0.711181640625,0.220855712890625,0.1129913330078125
0.474639892578125,0.1245269775390625,0.053863525390625
0.1793975830078125,-0.030853271484375,0.099945068359375
-0.03271484375,-0.15191650390625,0.2670440673828125
-0.160186767578125,-0.2669525146484375,0.392303466796875
-0.269561767578125,-0.3238983154296875,0.4535980224609375
-0.367828369140625,-0.267242431640625,0.4793243408203125
-0.4084625244140625,-0.1667022705078125,0.55621337890625
-0.53985595703125,-0.0520477294921875,0.6384735107421875
-0.75604248046875,-0.0047149658203125,0.8041534423828125
-0.914764404296875,-0.0526123046875,0.86773681640625
-1.119842529296875,-0.146026611328125,0.9963531494140625
-1.280914306640625,-0.1994171142578125,1.16387939453125
-1.4336700439453125,-0.2560577392578125,1.29852294921875
-1.5784912109375,-0.147247314453125,1.4548797607421875
-1.697509765625,-0.0788421630859375,1.556640625
-1.8555145263671875,-0.12738037109375,1.649017333984375
-1.9867095947265625,-0.117340087890625,1.7325592041015625
-2.211883544921875,-0.1946868896484375,1.817657470703125
-2.44561767578125,-0.2610015869140625,1.8943634033203125
-2.6740264892578125,-0.278472900390625,1.9866485595703125
-2.82122802734375,-0.2683258056640625,1.975128173828125
-2.7655487060546875,-0.06573486328125,1.9817352294921875
-2.6945343017578125,0.01123046875,1.824615478515625
-2.5801544189453125,-0.03887939453125,1.5612945556640625
-2.3910369873046875,-0.0667572021484375,1.25787353515625
-2.1289520263671875,-0.0923004150390625,0.9009552001953125
-1.8608856201171875,-0.1516265869140625,0.568115234375
-1.687835693359375,-0.1663665771484375,0.3239288330078125
-1.56842041015625,-0.23675537109375,0.1311798095703125
-1.4268798828125,-0.2404937744140625,-0.0042724609375
-1.289581298828125,-0.2490234375,-0.090728759765625
-1.10137939453125,-0.3070831298828125,-0.2080230712890625
-0.8614349365234375,-0.3294525146484375,-0.30023193359375
-0.6233062744140625,-0.230804443359375,-0.3383636474609375
-0.3514404296875,-0.0244903564453125,-0.47674560546875
-0.17169189453125,-0.0856170654296875,-0.48809814453125
-0.0760345458984375,-0.102264404296875,-0.4388580322265625
0.011138916015625,-0.090057373046875,-0.407379150390625
0.0851593017578125,-0.1661224365234375,-0.361785888671875
0.0851593017578125,-0.1661224365234375,-0.361785888671875
0.11431884765625,-0.28741455078125,-0.305023193359375
0.194549560546875,-0.3646697998046875,-0.24395751953125
0.30731201171875,-0.421844482421875,-0.2071533203125
0.30731201171875,-0.421844482421875,-0.2071533203125
0.2536773681640625,-0.2767791748046875,-0.20672607421875
0.2536773681640625,-0.2767791748046875,-0.20672607421875
